Folder: superconductor_data/pb/bose_2007/11nm/xrd

Note: pb/bose_2007/11nm/xrd/summary.md
## XRD Analysis

#### Curve 1 (001 Peak)
**Type**: Lorentzian\
**amplitude** 22.39\
**center**: 26.4\
**Ïƒ**: 0.242



## S<sup>2</sup>

**Amplitude of (111) Peak:** 85.38\
**E<sub>110</sub>:** 0.09929674508311062


Calculated by using S<sup>2</sup> and E<sub>110</sub> value of the 7nm film.\
**S<sup>2</sup>:** 0.030526062891231



## T<sub>C</sub>
**T<sub>C</sub>:**  6.94 K


### Reference
XRD from Figure 4.3 of Bose\
T<sub>C</sub> from Table 4.5 of Bose


S. Bose, Size Effects in Nanostructured Superconductors, PhD Thesis, 2007.
https://www.tifr.res.in/~superconductivity/pdfs/sangitabose.pdf

Note: README.md
[![DOI](https://zenodo.org/badge/DOI/10.5281/zenodo.3904782.svg)](https://doi.org/10.5281/zenodo.3904782)


Data Extraction Repository for
R.A Makin and S.M. Durbin, “Structural motifs: A potential pathway to superconductivity at standard temperature and pressure.”


### References


## YBCO

[1] C. Camerlingo, I. Delfino, and M. Lepore, Supercond. Sci. Technol. 15, 1606 (2002).\
    (https://doi.org/10.1088%2F0953-2048%2F15%2F11%2F321)


## Pb

[1] S. Bose, Size Effects in Nanostructured Superconductors, PhD Thesis, 2007.
https://www.tifr.res.in/~superconductivity/pdfs/sangitabose.pdf

## Nb

[1] S. Bose, Size Effects in Nanostructured Superconductors, PhD Thesis, 2007.
https://www.tifr.res.in/~superconductivity/pdfs/sangitabose.pdf

[2] C. T. Wu, Thin Solid Films 64, 103 (1979).\
https://doi.org/10.1016/0040-6090(79)90549-2

[3] G. Wu, A.-M. Valente, H. L. Phillips, H. Wang, A. T. Wu, T. J. Renk, and P. Provencio, Thin Solid Films 489, 56 (2005).\
https://doi.org/10.1016/j.tsf.2005.04.099

## Nb3Sn

[1] K. Kwasnitza, A. V. Narlikar, H. U. Nissen, and D. Salathé, Cryogenics 20, 715 (1980).\
https://doi.org/10.1016/0011-2275(80)90026-0

[2]G. Rosaz, S. Calatroni, F. Leaux, F. Motschmann, Z. Mydlarz, M. Taborelli, and W. Vollenberg, Development of Nb3Sn Coatings by Magnetron Sputtering for SRF Cavities, Proceedings of the 17th International Conference on RF Superconductivity SRF2015, 4 pages (2015). https://doi.org/10.18429/JACOW-SRF2015-TUPB051


## Nb3Ge

[1] M. Akinaga and T. Ueno, Applied Surface Science 33–34, 1269 (1988). \
https://doi.org/10.1016/0169-4332(88)90444-8

[2] S. Mase, T. Fukami, and S. Takano, Phase Transitions 8, 187 (1987).\
https://doi.org/10.1080/01411598708209375


## Nb3Al

[1] P. Li, W. Zhang, W. Lin, G. Wang, X. Pan, Z. Yu, X. Yang, B. Sun, G. Yan, Y. Zhang, C. H. Cheng, Y. Feng, and Y. Zhao, Journal of Alloys and Compounds 742, 130 (2018).\
https://doi.org/10.1016/j.jallcom.2018.01.248


## MgB2

[1] S. K. Chen, A. Serquis, G. Serrano, K. A. Yates, M. G. Blamire, D. Guthrie, J. Cooper, H. Wang, S. Margadonna, and J. L. MacManus‐Driscoll, Advanced Functional Materials 18, 113 (2008).\
(https://doi.org/10.1002/adfm.200700254)

[2] J. Nagamatsu, N. Nakagawa, T. Muranaka, Y. Zenitani, and J. Akimitsu, Nature 410, 63 (2001).\
 (https://doi.org/10.1038/35065039)

[3] Y. Wang, C. Zhuang, X. Sun, X. Huang, Q. Fu, Z. Liao, D. Yu, and Q. Feng, Supercond. Sci. Technol. 22, 125015 (2009).\
(https://doi.org/10.1088%2F0953-2048%2F22%2F12%2F125015)

[4] K. A. Yates, Burnell, N. A. Stelmashenko, D.-J. Kang, H. N. Lee, B. Oh, and M. G. Blamire, Phys. Rev. B 68, 220512 (2003).\
(https://doi.org/10.1103/PhysRevB.68.220512)

[5] K. A. Yates, G. Burnell, Z. Lockman, A. Kursumovic, J. L. MacManus Driscoll, and M. G. Blamire, Journal of Physics and Chemistry of Solids 67, 333 (2006).\
(https://doi.org/10.1016/j.jpcs.2005.10.114)

[6] C. Terzioglu, A. Varilci, and I. Belenli, Investigation of Effect of Annealing Temperature on Mechanical Prop

File: curve_1_fit.dat
35.0,0.165767
35.01,0.168143
35.02,0.17057
35.03,0.173049
35.04,0.175584
35.05,0.178174
35.06,0.180821
35.07,0.183528
35.08,0.186296
35.09,0.189127
35.1,0.192023
35.11,0.194986
35.12,0.198017
35.13,0.20112
35.14,0.204296
35.15,0.207547
35.16,0.210876
35.17,0.214286
35.18,0.217779
35.19,0.221358
35.2,0.225025
35.21,0.228784
35.22,0.232638
35.23,0.23659
35.24,0.240642
35.25,0.2448
35.26,0.249065
35.27,0.253443
35.28,0.257936
35.29,0.26255
35.3,0.267288
35.31,0.272155
35.32,0.277156
35.33,0.282295
35.34,0.287578
35.35,0.293009
35.36,0.298596
35.37,0.304343
35.38,0.310256
35.39,0.316343
35.4,0.32261
35.41,0.329064
35.42,0.335713
35.43,0.342564
35.44,0.349626
35.45,0.356907
35.46,0.364417
35.47,0.372165
35.48,0.380161
35.49,0.388417
35.5,0.396942
35.51,0.40575
35.52,0.414852
35.53,0.424262
35.54,0.433993
35.55,0.444061
35.56,0.454481
35.57,0.465269
35.58,0.476444
35.59,0.488022
35.6,0.500025
35.61,0.512472
35.62,0.525387
35.63,0.538791
35.64,0.552711
35.65,0.567172
35.66,0.582203
35.67,0.597834
35.68,0.614098
35.69,0.631027
35.7,0.648659
35.71,0.667033
35.72,0.68619
35.73,0.706175
35.74,0.727036
35.75,0.748825
35.76,0.771596
35.77,0.795408
35.78,0.820325
35.79,0.846417
35.8,0.873755
35.81,0.902421
35.82,0.9325
35.83,0.964085
35.84,0.997277
35.85,1.03218
35.86,1.06892
35.87,1.10763
35.88,1.14843
35.89,1.19149
35.9,1.23697
35.91,1.28504
35.92,1.33592
35.93,1.3898
35.94,1.44694
35.95,1.50758
35.96,1.57202
35.97,1.64057
35.98,1.71357
35.99,1.79141
36,1.8745
36.01,1.96333
36.02,2.05839
36.03,2.16028
36.04,2.26963
36.05,2.38715
36.06,2.51363
36.07,2.64998
36.08,2.79717
36.09,2.95633
36.1,3.12871
36.11,3.31569
36.12,3.51887
36.13,3.74
36.14,3.98109
36.15,4.24436
36.16,4.53233
36.17,4.84782
36.18,5.19398
36.19,5.57432
36.2,5.99275
36.21,6.45355
36.22,6.96137
36.23,7.52122
36.24,8.13832
36.25,8.81796
36.26,9.56524
36.27,10.3846
36.28,11.2792
36.29,12.2501
36.3,13.2949
36.31,14.4067
36.32,15.5718
36.33,16.7684
36.34,17.9648
36.35,19.1191
36.36,20.1799
36.37,21.0901
36.38,21.7921
36.39,22.2362
36.4,22.3883
36.41,22.2362
36.42,21.7921
36.43,21.0901
36.44,20.1799
36.45,19.1191
36.46,17.9648
36.47,16.7684
36.48,15.5718
36.49,14.4067
36.5,13.2949
36.51,12.2501
36.52,11.2792
36.53,10.3846
36.54,9.56524
36.55,8.81796
36.56,8.13832
36.57,7.52122
36.58,6.96137
36.59,6.45355
36.6,5.99275
36.61,5.57432
36.62,5.19398
36.63,4.84782
36.64,4.53233
36.65,4.24436
36.66,3.98109
36.67,3.74
36.68,3.51887
36.69,3.31569
36.7,3.12871
36.71,2.95633
36.72,2.79717
36.73,2.64998
36.74,2.51363
36.75,2.38715
36.76,2.26963
36.77,2.16028
36.78,2.05839
36.79,1.96333
36.8,1.8745
36.81,1.79141
36.82,1.71357
36.83,1.64057
36.84,1.57202
36.85,1.50758
36.86,1.44694
36.87,1.3898
36.88,1.33592
36.89,1.28504
36.9,1.23697
36.91,1.19149
36.92,1.14843
36.93,1.10763
36.94,1.06892
36.95,1.03218
36.96,0.997277
36.97,0.964085
36.98,0.9325
36.99,0.902421
37,0.873755
37.01,0.846417
37.02,0.820325
37.03,0.795408
37.04,0.771596
37.05,0.748825
37.06,0.727036
37.07,0.706175
37.08,0.68619
37.09,0.667033
37.1,0.648659
37.11,0.631027
37.12,0.614098
37.13,0.597834
37.14,0.582203
37.15,0.567172
37.16,0.552711
37.17,0.538791
37.18,0.525387
37.19,0.512472
37.2,0.500025
37.21,0.488022
37.22,0.476444
37.23,0.465269
37.24,0.454481
37.25,0.444061
37.26,0.433993
37.27,0.424262
37.28,0.414852
37.29,0.40575
37.3,0.396942
37.31,0.388417
37.32,0.380161
37.33,0.372165
37.34,0.364417
37.35,0.356907
37.36,0.349626
37.37,0.342564
37.38,0.335713
37.39,0.329064
37.4,0.32261
37.41,0.316343
37.42,0.310256
37.43,0.304343
37.44,0.298596
37.45,0.293009
37.46,0.287578
37.47,0.282295
37.48,0.277156
37.49,0.272155
37.5,0.267288
37.51,0.26255
37.52,0.257936
37.53,0.253443
37.54,0.249065
37.55,0.2448
37.56,0.240642
37.57,0.23659
37.58,0.232638
37.59,0.228784
37.6,0.225025
37.61,0.221358
37.62,0.217779
37.63,0.214286
37.64,0.210876
37.65,0.207547
37.66,0.204296
37.67,0.20112
37.68,0.198017
37.69,0.194986
37.7,0.192023
37.71,0.189127
37.72,0.186296
37.73,0.183528
37.74,0.180821
37.75,0.178174
37.76,0.175584
37.77,0.173049
37.78,0.17057
37.79,0.168143
37.8,0.165767
37.81,0.163441
37.82,0.161164
37.83,0.158933
37.84,0.156749
37.85,0.154609
37.86,0.152513
37.87,0.150459
37.88,0.148446
37.89,0.146473
37.9,0.144539
37.91,0.142643
37.92,0.140784
37.93,0.138961
37.94,0.137174
37.95,0.13542
37.96,0.1337
37.97,0.132012
37.98,0.130356
37.99,0.128731
37.999,0.127294

File: curve_total_fit.dat
35.0,138.166
35.01,138.168
35.02,138.171
35.03,138.173
35.04,138.176
35.05,138.178
35.06,138.181
35.07,138.184
35.08,138.186
35.09,138.189
35.1,138.192
35.11,138.195
35.12,138.198
35.13,138.201
35.14,138.204
35.15,138.208
35.16,138.211
35.17,138.214
35.18,138.218
35.19,138.221
35.2,138.225
35.21,138.229
35.22,138.233
35.23,138.237
35.24,138.241
35.25,138.245
35.26,138.249
35.27,138.253
35.28,138.258
35.29,138.263
35.3,138.267
35.31,138.272
35.32,138.277
35.33,138.282
35.34,138.288
35.35,138.293
35.36,138.299
35.37,138.304
35.38,138.31
35.39,138.316
35.4,138.323
35.41,138.329
35.42,138.336
35.43,138.343
35.44,138.35
35.45,138.357
35.46,138.364
35.47,138.372
35.48,138.38
35.49,138.388
35.5,138.397
35.51,138.406
35.52,138.415
35.53,138.424
35.54,138.434
35.55,138.444
35.56,138.454
35.57,138.465
35.58,138.476
35.59,138.488
35.6,138.5
35.61,138.512
35.62,138.525
35.63,138.539
35.64,138.553
35.65,138.567
35.66,138.582
35.67,138.598
35.68,138.614
35.69,138.631
35.7,138.649
35.71,138.667
35.72,138.686
35.73,138.706
35.74,138.727
35.75,138.749
35.76,138.772
35.77,138.795
35.78,138.82
35.79,138.846
35.8,138.874
35.81,138.902
35.82,138.933
35.83,138.964
35.84,138.997
35.85,139.032
35.86,139.069
35.87,139.108
35.88,139.148
35.89,139.191
35.9,139.237
35.91,139.285
35.92,139.336
35.93,139.39
35.94,139.447
35.95,139.508
35.96,139.572
35.97,139.641
35.98,139.714
35.99,139.791
36,139.875
36.01,139.963
36.02,140.058
36.03,140.16
36.04,140.27
36.05,140.387
36.06,140.514
36.07,140.65
36.08,140.797
36.09,140.956
36.1,141.129
36.11,141.316
36.12,141.519
36.13,141.74
36.14,141.981
36.15,142.244
36.16,142.532
36.17,142.848
36.18,143.194
36.19,143.574
36.2,143.993
36.21,144.454
36.22,144.961
36.23,145.521
36.24,146.138
36.25,146.818
36.26,147.565
36.27,148.385
36.28,149.279
36.29,150.25
36.3,151.295
36.31,152.407
36.32,153.572
36.33,154.768
36.34,155.965
36.35,157.119
36.36,158.18
36.37,159.09
36.38,159.792
36.39,160.236
36.4,160.388
36.41,160.236
36.42,159.792
36.43,159.09
36.44,158.18
36.45,157.119
36.46,155.965
36.47,154.768
36.48,153.572
36.49,152.407
36.5,151.295
36.51,150.25
36.52,149.279
36.53,148.385
36.54,147.565
36.55,146.818
36.56,146.138
36.57,145.521
36.58,144.961
36.59,144.454
36.6,143.993
36.61,143.574
36.62,143.194
36.63,142.848
36.64,142.532
36.65,142.244
36.66,141.981
36.67,141.74
36.68,141.519
36.69,141.316
36.7,141.129
36.71,140.956
36.72,140.797
36.73,140.65
36.74,140.514
36.75,140.387
36.76,140.27
36.77,140.16
36.78,140.058
36.79,139.963
36.8,139.875
36.81,139.791
36.82,139.714
36.83,139.641
36.84,139.572
36.85,139.508
36.86,139.447
36.87,139.39
36.88,139.336
36.89,139.285
36.9,139.237
36.91,139.191
36.92,139.148
36.93,139.108
36.94,139.069
36.95,139.032
36.96,138.997
36.97,138.964
36.98,138.933
36.99,138.902
37,138.874
37.01,138.846
37.02,138.82
37.03,138.795
37.04,138.772
37.05,138.749
37.06,138.727
37.07,138.706
37.08,138.686
37.09,138.667
37.1,138.649
37.11,138.631
37.12,138.614
37.13,138.598
37.14,138.582
37.15,138.567
37.16,138.553
37.17,138.539
37.18,138.525
37.19,138.512
37.2,138.5
37.21,138.488
37.22,138.476
37.23,138.465
37.24,138.454
37.25,138.444
37.26,138.434
37.27,138.424
37.28,138.415
37.29,138.406
37.3,138.397
37.31,138.388
37.32,138.38
37.33,138.372
37.34,138.364
37.35,138.357
37.36,138.35
37.37,138.343
37.38,138.336
37.39,138.329
37.4,138.323
37.41,138.316
37.42,138.31
37.43,138.304
37.44,138.299
37.45,138.293
37.46,138.288
37.47,138.282
37.48,138.277
37.49,138.272
37.5,138.267
37.51,138.263
37.52,138.258
37.53,138.253
37.54,138.249
37.55,138.245
37.56,138.241
37.57,138.237
37.58,138.233
37.59,138.229
37.6,138.225
37.61,138.221
37.62,138.218
37.63,138.214
37.64,138.211
37.65,138.208
37.66,138.204
37.67,138.201
37.68,138.198
37.69,138.195
37.7,138.192
37.71,138.189
37.72,138.186
37.73,138.184
37.74,138.181
37.75,138.178
37.76,138.176
37.77,138.173
37.78,138.171
37.79,138.168
37.8,138.166
37.81,138.163
37.82,138.161
37.83,138.159
37.84,138.157
37.85,138.155
37.86,138.153
37.87,138.15
37.88,138.148
37.89,138.146
37.9,138.145
37.91,138.143
37.92,138.141
37.93,138.139
37.94,138.137
37.95,138.135
37.96,138.134
37.97,138.132
37.98,138.13
37.99,138.129
37.999,138.127