Folder: superconductor_data/pb/bose_2007/60nm/xrd

Note: pb/bose_2007/60nm/xrd/summary.md
## XRD Analysis

#### Curve 1 (001 Peak)
**Type**: Lorentzian\
**amplitude** 65.85\
**center**: 36.3\
**Ïƒ**: 0.295



## S<sup>2</sup>

**Amplitude of (111) Peak:** 635\
**E<sub>110</sub>:** 0.09247950011626181


**S<sup>2</sup>:** 0.0239


**T<sub>C</sub>:**  7.24 K


## Reference

XRD from Figure 4.3 of Bose\
T<sub>C</sub> from Table 4.5 of Bose



S. Bose, Size Effects in Nanostructured Superconductors, PhD Thesis, 2007.
https://www.tifr.res.in/~superconductivity/pdfs/sangitabose.pdf

Note: README.md
[![DOI](https://zenodo.org/badge/DOI/10.5281/zenodo.3904782.svg)](https://doi.org/10.5281/zenodo.3904782)


Data Extraction Repository for
R.A Makin and S.M. Durbin, “Structural motifs: A potential pathway to superconductivity at standard temperature and pressure.”


### References


## YBCO

[1] C. Camerlingo, I. Delfino, and M. Lepore, Supercond. Sci. Technol. 15, 1606 (2002).\
    (https://doi.org/10.1088%2F0953-2048%2F15%2F11%2F321)


## Pb

[1] S. Bose, Size Effects in Nanostructured Superconductors, PhD Thesis, 2007.
https://www.tifr.res.in/~superconductivity/pdfs/sangitabose.pdf

## Nb

[1] S. Bose, Size Effects in Nanostructured Superconductors, PhD Thesis, 2007.
https://www.tifr.res.in/~superconductivity/pdfs/sangitabose.pdf

[2] C. T. Wu, Thin Solid Films 64, 103 (1979).\
https://doi.org/10.1016/0040-6090(79)90549-2

[3] G. Wu, A.-M. Valente, H. L. Phillips, H. Wang, A. T. Wu, T. J. Renk, and P. Provencio, Thin Solid Films 489, 56 (2005).\
https://doi.org/10.1016/j.tsf.2005.04.099

## Nb3Sn

[1] K. Kwasnitza, A. V. Narlikar, H. U. Nissen, and D. Salathé, Cryogenics 20, 715 (1980).\
https://doi.org/10.1016/0011-2275(80)90026-0

[2]G. Rosaz, S. Calatroni, F. Leaux, F. Motschmann, Z. Mydlarz, M. Taborelli, and W. Vollenberg, Development of Nb3Sn Coatings by Magnetron Sputtering for SRF Cavities, Proceedings of the 17th International Conference on RF Superconductivity SRF2015, 4 pages (2015). https://doi.org/10.18429/JACOW-SRF2015-TUPB051


## Nb3Ge

[1] M. Akinaga and T. Ueno, Applied Surface Science 33–34, 1269 (1988). \
https://doi.org/10.1016/0169-4332(88)90444-8

[2] S. Mase, T. Fukami, and S. Takano, Phase Transitions 8, 187 (1987).\
https://doi.org/10.1080/01411598708209375


## Nb3Al

[1] P. Li, W. Zhang, W. Lin, G. Wang, X. Pan, Z. Yu, X. Yang, B. Sun, G. Yan, Y. Zhang, C. H. Cheng, Y. Feng, and Y. Zhao, Journal of Alloys and Compounds 742, 130 (2018).\
https://doi.org/10.1016/j.jallcom.2018.01.248


## MgB2

[1] S. K. Chen, A. Serquis, G. Serrano, K. A. Yates, M. G. Blamire, D. Guthrie, J. Cooper, H. Wang, S. Margadonna, and J. L. MacManus‐Driscoll, Advanced Functional Materials 18, 113 (2008).\
(https://doi.org/10.1002/adfm.200700254)

[2] J. Nagamatsu, N. Nakagawa, T. Muranaka, Y. Zenitani, and J. Akimitsu, Nature 410, 63 (2001).\
 (https://doi.org/10.1038/35065039)

[3] Y. Wang, C. Zhuang, X. Sun, X. Huang, Q. Fu, Z. Liao, D. Yu, and Q. Feng, Supercond. Sci. Technol. 22, 125015 (2009).\
(https://doi.org/10.1088%2F0953-2048%2F22%2F12%2F125015)

[4] K. A. Yates, Burnell, N. A. Stelmashenko, D.-J. Kang, H. N. Lee, B. Oh, and M. G. Blamire, Phys. Rev. B 68, 220512 (2003).\
(https://doi.org/10.1103/PhysRevB.68.220512)

[5] K. A. Yates, G. Burnell, Z. Lockman, A. Kursumovic, J. L. MacManus Driscoll, and M. G. Blamire, Journal of Physics and Chemistry of Solids 67, 333 (2006).\
(https://doi.org/10.1016/j.jpcs.2005.10.114)

[6] C. Terzioglu, A. Varilci, and I. Belenli, Investigation of Effect of Annealing Temperature on Mechanical Prop

File: curve_1_fit.dat
35.0,1.07373
35.01,1.08902
35.02,1.10464
35.03,1.12059
35.04,1.1369
35.05,1.15356
35.06,1.17059
35.07,1.188
35.08,1.2058
35.09,1.224
35.1,1.24262
35.11,1.26166
35.12,1.28114
35.13,1.30108
35.14,1.32148
35.15,1.34237
35.16,1.36375
35.17,1.38565
35.18,1.40808
35.19,1.43105
35.2,1.45459
35.21,1.47872
35.22,1.50345
35.23,1.5288
35.24,1.55479
35.25,1.58145
35.26,1.60881
35.27,1.63687
35.28,1.66567
35.29,1.69524
35.3,1.7256
35.31,1.75678
35.32,1.78881
35.33,1.82172
35.34,1.85554
35.35,1.89031
35.36,1.92606
35.37,1.96283
35.38,2.00066
35.39,2.03959
35.4,2.07966
35.41,2.12092
35.42,2.16341
35.43,2.20719
35.44,2.2523
35.45,2.29881
35.46,2.34676
35.47,2.39622
35.48,2.44726
35.49,2.49993
35.5,2.55431
35.51,2.61048
35.52,2.66851
35.53,2.72848
35.54,2.79049
35.55,2.85463
35.56,2.92098
35.57,2.98966
35.58,3.06078
35.59,3.13445
35.6,3.21079
35.61,3.28994
35.62,3.37203
35.63,3.45721
35.64,3.54563
35.65,3.63746
35.66,3.73288
35.67,3.83207
35.68,3.93523
35.69,4.04258
35.7,4.15435
35.71,4.27077
35.72,4.39211
35.73,4.51865
35.74,4.65067
35.75,4.78851
35.76,4.93251
35.77,5.08303
35.78,5.24046
35.79,5.40524
35.8,5.57782
35.81,5.7587
35.82,5.94841
35.83,6.14752
35.84,6.35666
35.85,6.5765
35.86,6.80777
35.87,7.05128
35.88,7.30788
35.89,7.5785
35.9,7.86419
35.91,8.16604
35.92,8.48528
35.93,8.82325
35.94,9.1814
35.95,9.56134
35.96,9.96484
35.97,10.3938
35.98,10.8504
35.99,11.337
36,11.8562
36.01,12.4109
36.02,13.0043
36.03,13.6399
36.04,14.3217
36.05,15.0542
36.06,15.8422
36.07,16.6914
36.08,17.6077
36.09,18.5983
36.1,19.671
36.11,20.8344
36.12,22.0986
36.13,23.4747
36.14,24.9753
36.15,26.6149
36.16,28.4094
36.17,30.3774
36.18,32.5395
36.19,34.919
36.2,37.5424
36.21,40.4392
36.22,43.6424
36.23,47.1885
36.24,51.1175
36.25,55.4723
36.26,60.2978
36.27,65.6395
36.28,71.5399
36.29,78.035
36.3,85.1471
36.31,92.8756
36.32,101.185
36.33,109.99
36.34,119.138
36.35,128.392
36.36,137.424
36.37,145.817
36.38,153.09
36.39,158.744
36.4,162.342
36.41,163.578
36.42,162.342
36.43,158.744
36.44,153.09
36.45,145.817
36.46,137.424
36.47,128.392
36.48,119.138
36.49,109.99
36.5,101.185
36.51,92.8756
36.52,85.1471
36.53,78.035
36.54,71.5399
36.55,65.6395
36.56,60.2978
36.57,55.4723
36.58,51.1175
36.59,47.1885
36.6,43.6424
36.61,40.4392
36.62,37.5424
36.63,34.919
36.64,32.5395
36.65,30.3774
36.66,28.4094
36.67,26.6149
36.68,24.9753
36.69,23.4747
36.7,22.0986
36.71,20.8344
36.72,19.671
36.73,18.5983
36.74,17.6077
36.75,16.6914
36.76,15.8422
36.77,15.0542
36.78,14.3217
36.79,13.6399
36.8,13.0043
36.81,12.4109
36.82,11.8562
36.83,11.337
36.84,10.8504
36.85,10.3938
36.86,9.96484
36.87,9.56134
36.88,9.1814
36.89,8.82325
36.9,8.48528
36.91,8.16604
36.92,7.86419
36.93,7.5785
36.94,7.30788
36.95,7.05128
36.96,6.80777
36.97,6.5765
36.98,6.35666
36.99,6.14752
37,5.94841
37.01,5.7587
37.02,5.57782
37.03,5.40524
37.04,5.24046
37.05,5.08303
37.06,4.93251
37.07,4.78851
37.08,4.65067
37.09,4.51865
37.1,4.39211
37.11,4.27077
37.12,4.15435
37.13,4.04258
37.14,3.93523
37.15,3.83207
37.16,3.73288
37.17,3.63746
37.18,3.54563
37.19,3.45721
37.2,3.37203
37.21,3.28994
37.22,3.21079
37.23,3.13445
37.24,3.06078
37.25,2.98966
37.26,2.92098
37.27,2.85463
37.28,2.79049
37.29,2.72848
37.3,2.66851
37.31,2.61048
37.32,2.55431
37.33,2.49993
37.34,2.44726
37.35,2.39622
37.36,2.34676
37.37,2.29881
37.38,2.2523
37.39,2.20719
37.4,2.16341
37.41,2.12092
37.42,2.07966
37.43,2.03959
37.44,2.00066
37.45,1.96283
37.46,1.92606
37.47,1.89031
37.48,1.85554
37.49,1.82172
37.5,1.78881
37.51,1.75678
37.52,1.7256
37.53,1.69524
37.54,1.66567
37.55,1.63687
37.56,1.60881
37.57,1.58145
37.58,1.55479
37.59,1.5288
37.6,1.50345
37.61,1.47872
37.62,1.45459
37.63,1.43105
37.64,1.40808
37.65,1.38565
37.66,1.36375
37.67,1.34237
37.68,1.32148
37.69,1.30108
37.7,1.28114
37.71,1.26166
37.72,1.24262
37.73,1.224
37.74,1.2058
37.75,1.188
37.76,1.17059
37.77,1.15356
37.78,1.1369
37.79,1.12059
37.8,1.10464
37.81,1.08902
37.82,1.07373
37.83,1.05875
37.84,1.04409
37.85,1.02973
37.86,1.01567
37.87,1.00189
37.88,0.988383
37.89,0.97515
37.9,0.962182
37.91,0.94947
37.92,0.937007
37.93,0.924788
37.94,0.912806
37.95,0.901055
37.96,0.889529
37.97,0.878223
37.98,0.86713
37.99,0.856246
37.999,0.846624

File: curve_total_fit.dat
35.0,563.674
35.01,563.689
35.02,563.705
35.03,563.721
35.04,563.737
35.05,563.754
35.06,563.771
35.07,563.788
35.08,563.806
35.09,563.824
35.1,563.843
35.11,563.862
35.12,563.881
35.13,563.901
35.14,563.921
35.15,563.942
35.16,563.964
35.17,563.986
35.18,564.008
35.19,564.031
35.2,564.055
35.21,564.079
35.22,564.103
35.23,564.129
35.24,564.155
35.25,564.181
35.26,564.209
35.27,564.237
35.28,564.266
35.29,564.295
35.3,564.326
35.31,564.357
35.32,564.389
35.33,564.422
35.34,564.456
35.35,564.49
35.36,564.526
35.37,564.563
35.38,564.601
35.39,564.64
35.4,564.68
35.41,564.721
35.42,564.763
35.43,564.807
35.44,564.852
35.45,564.899
35.46,564.947
35.47,564.996
35.48,565.047
35.49,565.1
35.5,565.154
35.51,565.21
35.52,565.269
35.53,565.328
35.54,565.39
35.55,565.455
35.56,565.521
35.57,565.59
35.58,565.661
35.59,565.734
35.6,565.811
35.61,565.89
35.62,565.972
35.63,566.057
35.64,566.146
35.65,566.237
35.66,566.333
35.67,566.432
35.68,566.535
35.69,566.643
35.7,566.754
35.71,566.871
35.72,566.992
35.73,567.119
35.74,567.251
35.75,567.389
35.76,567.533
35.77,567.683
35.78,567.84
35.79,568.005
35.8,568.178
35.81,568.359
35.82,568.548
35.83,568.748
35.84,568.957
35.85,569.176
35.86,569.408
35.87,569.651
35.88,569.908
35.89,570.179
35.9,570.464
35.91,570.766
35.92,571.085
35.93,571.423
35.94,571.781
35.95,572.161
35.96,572.565
35.97,572.994
35.98,573.45
35.99,573.937
36,574.456
36.01,575.011
36.02,575.604
36.03,576.24
36.04,576.922
36.05,577.654
36.06,578.442
36.07,579.291
36.08,580.208
36.09,581.198
36.1,582.271
36.11,583.434
36.12,584.699
36.13,586.075
36.14,587.575
36.15,589.215
36.16,591.009
36.17,592.977
36.18,595.139
36.19,597.519
36.2,600.142
36.21,603.039
36.22,606.242
36.23,609.788
36.24,613.717
36.25,618.072
36.26,622.898
36.27,628.239
36.28,634.14
36.29,640.635
36.3,647.747
36.31,655.476
36.32,663.785
36.33,672.59
36.34,681.738
36.35,690.992
36.36,700.024
36.37,708.417
36.38,715.69
36.39,721.344
36.4,724.942
36.41,726.178
36.42,724.942
36.43,721.344
36.44,715.69
36.45,708.417
36.46,700.024
36.47,690.992
36.48,681.738
36.49,672.59
36.5,663.785
36.51,655.476
36.52,647.747
36.53,640.635
36.54,634.14
36.55,628.239
36.56,622.898
36.57,618.072
36.58,613.717
36.59,609.788
36.6,606.242
36.61,603.039
36.62,600.142
36.63,597.519
36.64,595.139
36.65,592.977
36.66,591.009
36.67,589.215
36.68,587.575
36.69,586.075
36.7,584.699
36.71,583.434
36.72,582.271
36.73,581.198
36.74,580.208
36.75,579.291
36.76,578.442
36.77,577.654
36.78,576.922
36.79,576.24
36.8,575.604
36.81,575.011
36.82,574.456
36.83,573.937
36.84,573.45
36.85,572.994
36.86,572.565
36.87,572.161
36.88,571.781
36.89,571.423
36.9,571.085
36.91,570.766
36.92,570.464
36.93,570.179
36.94,569.908
36.95,569.651
36.96,569.408
36.97,569.176
36.98,568.957
36.99,568.748
37,568.548
37.01,568.359
37.02,568.178
37.03,568.005
37.04,567.84
37.05,567.683
37.06,567.533
37.07,567.389
37.08,567.251
37.09,567.119
37.1,566.992
37.11,566.871
37.12,566.754
37.13,566.643
37.14,566.535
37.15,566.432
37.16,566.333
37.17,566.237
37.18,566.146
37.19,566.057
37.2,565.972
37.21,565.89
37.22,565.811
37.23,565.734
37.24,565.661
37.25,565.59
37.26,565.521
37.27,565.455
37.28,565.39
37.29,565.328
37.3,565.269
37.31,565.21
37.32,565.154
37.33,565.1
37.34,565.047
37.35,564.996
37.36,564.947
37.37,564.899
37.38,564.852
37.39,564.807
37.4,564.763
37.41,564.721
37.42,564.68
37.43,564.64
37.44,564.601
37.45,564.563
37.46,564.526
37.47,564.49
37.48,564.456
37.49,564.422
37.5,564.389
37.51,564.357
37.52,564.326
37.53,564.295
37.54,564.266
37.55,564.237
37.56,564.209
37.57,564.181
37.58,564.155
37.59,564.129
37.6,564.103
37.61,564.079
37.62,564.055
37.63,564.031
37.64,564.008
37.65,563.986
37.66,563.964
37.67,563.942
37.68,563.921
37.69,563.901
37.7,563.881
37.71,563.862
37.72,563.843
37.73,563.824
37.74,563.806
37.75,563.788
37.76,563.771
37.77,563.754
37.78,563.737
37.79,563.721
37.8,563.705
37.81,563.689
37.82,563.674
37.83,563.659
37.84,563.644
37.85,563.63
37.86,563.616
37.87,563.602
37.88,563.588
37.89,563.575
37.9,563.562
37.91,563.549
37.92,563.537
37.93,563.525
37.94,563.513
37.95,563.501
37.96,563.49
37.97,563.478
37.98,563.467
37.99,563.456
37.999,563.447

File: xrd.csv
35.6508, 564.698
35.8352, 566.587
35.9837, 571.7
36.0888, 581.905
36.1718, 597.806
36.2529, 618.973
36.2709, 639.43
36.304, 656.1
36.3325, 675.765
36.3502, 699.158
36.4102, 726.828
36.4704, 700.293
36.476, 679.365
36.4854, 658.537
36.5131, 643.284
36.5456, 629.001
36.593, 611.544
36.6622, 591.23
36.7691, 575.098
36.9217, 568.659
37.106, 563.984