Folder: superconductor_data/mgb2/nagamatsu_2001/tc39/xrd

Note: mgb2/nagamatsu_2001/tc39/xrd/summary.md
## XRD Analysis

#### Curve 1 (001 Peak)
**Type**: Lorentzian\
**amplitude** 0.082\
**center**: 25.28\
**width**: 0.1683



## S<sup>2</sup>
**Amplitude of (002) Peak:** 0.36186\
**E<sub>200</sub>:** 0.05984173614054195

Calculated using S<sup>2</sup> and E<sub>200</sub> value of the Mg<sub>0.95</sub> film from [2].\
**S<sup>2</sup>:** 0.1122

## T<sub>C</sub>
**T<sub>C</sub>:**  39 K


### References
XRD from Figure 1 of Nagamatsu et al.\
T<sub>C</sub> given in Figure 4 of Nagamatsu et al.


[1] J. Nagamatsu, N. Nakagawa, T. Muranaka, Y. Zenitani, and J. Akimitsu, Nature 410, 63 (2001).\
 (https://doi.org/10.1038/35065039)


[2] S. K. Chen, A. Serquis, G. Serrano, K. A. Yates, M. G. Blamire, D. Guthrie, J. Cooper, H. Wang, S. Margadonna, and J. L. MacManus‚ÄêDriscoll, Advanced Functional Materials 18, 113 (2008).\
(https://doi.org/10.1002/adfm.200700254)

Note: README.md
[![DOI](https://zenodo.org/badge/DOI/10.5281/zenodo.3904782.svg)](https://doi.org/10.5281/zenodo.3904782)


Data Extraction Repository for
R.A Makin and S.M. Durbin, “Structural motifs: A potential pathway to superconductivity at standard temperature and pressure.”


### References


## YBCO

[1] C. Camerlingo, I. Delfino, and M. Lepore, Supercond. Sci. Technol. 15, 1606 (2002).\
    (https://doi.org/10.1088%2F0953-2048%2F15%2F11%2F321)


## Pb

[1] S. Bose, Size Effects in Nanostructured Superconductors, PhD Thesis, 2007.
https://www.tifr.res.in/~superconductivity/pdfs/sangitabose.pdf

## Nb

[1] S. Bose, Size Effects in Nanostructured Superconductors, PhD Thesis, 2007.
https://www.tifr.res.in/~superconductivity/pdfs/sangitabose.pdf

[2] C. T. Wu, Thin Solid Films 64, 103 (1979).\
https://doi.org/10.1016/0040-6090(79)90549-2

[3] G. Wu, A.-M. Valente, H. L. Phillips, H. Wang, A. T. Wu, T. J. Renk, and P. Provencio, Thin Solid Films 489, 56 (2005).\
https://doi.org/10.1016/j.tsf.2005.04.099

## Nb3Sn

[1] K. Kwasnitza, A. V. Narlikar, H. U. Nissen, and D. Salathé, Cryogenics 20, 715 (1980).\
https://doi.org/10.1016/0011-2275(80)90026-0

[2]G. Rosaz, S. Calatroni, F. Leaux, F. Motschmann, Z. Mydlarz, M. Taborelli, and W. Vollenberg, Development of Nb3Sn Coatings by Magnetron Sputtering for SRF Cavities, Proceedings of the 17th International Conference on RF Superconductivity SRF2015, 4 pages (2015). https://doi.org/10.18429/JACOW-SRF2015-TUPB051


## Nb3Ge

[1] M. Akinaga and T. Ueno, Applied Surface Science 33–34, 1269 (1988). \
https://doi.org/10.1016/0169-4332(88)90444-8

[2] S. Mase, T. Fukami, and S. Takano, Phase Transitions 8, 187 (1987).\
https://doi.org/10.1080/01411598708209375


## Nb3Al

[1] P. Li, W. Zhang, W. Lin, G. Wang, X. Pan, Z. Yu, X. Yang, B. Sun, G. Yan, Y. Zhang, C. H. Cheng, Y. Feng, and Y. Zhao, Journal of Alloys and Compounds 742, 130 (2018).\
https://doi.org/10.1016/j.jallcom.2018.01.248


## MgB2

[1] S. K. Chen, A. Serquis, G. Serrano, K. A. Yates, M. G. Blamire, D. Guthrie, J. Cooper, H. Wang, S. Margadonna, and J. L. MacManus‐Driscoll, Advanced Functional Materials 18, 113 (2008).\
(https://doi.org/10.1002/adfm.200700254)

[2] J. Nagamatsu, N. Nakagawa, T. Muranaka, Y. Zenitani, and J. Akimitsu, Nature 410, 63 (2001).\
 (https://doi.org/10.1038/35065039)

[3] Y. Wang, C. Zhuang, X. Sun, X. Huang, Q. Fu, Z. Liao, D. Yu, and Q. Feng, Supercond. Sci. Technol. 22, 125015 (2009).\
(https://doi.org/10.1088%2F0953-2048%2F22%2F12%2F125015)

[4] K. A. Yates, Burnell, N. A. Stelmashenko, D.-J. Kang, H. N. Lee, B. Oh, and M. G. Blamire, Phys. Rev. B 68, 220512 (2003).\
(https://doi.org/10.1103/PhysRevB.68.220512)

[5] K. A. Yates, G. Burnell, Z. Lockman, A. Kursumovic, J. L. MacManus Driscoll, and M. G. Blamire, Journal of Physics and Chemistry of Solids 67, 333 (2006).\
(https://doi.org/10.1016/j.jpcs.2005.10.114)

[6] C. Terzioglu, A. Varilci, and I. Belenli, Investigation of Effect of Annealing Temperature on Mechanical Prop

File: curve_1_fit.dat
24.0,0.000353279
24.01,0.00035884
24.02,0.000364533
24.03,0.000370362
24.04,0.000376332
24.05,0.000382448
24.06,0.000388713
24.07,0.000395134
24.08,0.000401714
24.09,0.000408461
24.1,0.000415378
24.11,0.000422472
24.12,0.000429749
24.13,0.000437215
24.14,0.000444878
24.15,0.000452743
24.16,0.000460818
24.17,0.000469111
24.18,0.000477629
24.19,0.000486381
24.2,0.000495375
24.21,0.00050462
24.22,0.000514126
24.23,0.000523903
24.24,0.000533961
24.25,0.00054431
24.26,0.000554963
24.27,0.00056593
24.28,0.000577225
24.29,0.000588861
24.3,0.000600852
24.31,0.000613211
24.32,0.000625955
24.33,0.000639099
24.34,0.000652661
24.35,0.000666657
24.36,0.000681108
24.37,0.000696032
24.38,0.00071145
24.39,0.000727385
24.4,0.00074386
24.41,0.000760899
24.42,0.000778528
24.43,0.000796775
24.44,0.000815669
24.45,0.000835241
24.46,0.000855523
24.47,0.00087655
24.48,0.00089836
24.49,0.00092099
24.5,0.000944483
24.51,0.000968883
24.52,0.000994236
24.53,0.00102059
24.54,0.00104801
24.55,0.00107654
24.56,0.00110624
24.57,0.00113719
24.58,0.00116945
24.59,0.00120309
24.6,0.0012382
24.61,0.00127486
24.62,0.00131316
24.63,0.0013532
24.64,0.0013951
24.65,0.00143895
24.66,0.0014849
24.67,0.00153306
24.68,0.0015836
24.69,0.00163665
24.7,0.0016924
24.71,0.00175103
24.72,0.00181273
24.73,0.00187772
24.74,0.00194625
24.75,0.00201856
24.76,0.00209494
24.77,0.0021757
24.78,0.00226118
24.79,0.00235174
24.8,0.0024478
24.81,0.0025498
24.82,0.00265823
24.83,0.00277365
24.84,0.00289666
24.85,0.00302792
24.86,0.00316819
24.87,0.0033183
24.88,0.00347916
24.89,0.00365182
24.9,0.00383745
24.91,0.00403734
24.92,0.00425296
24.93,0.00448598
24.94,0.00473828
24.95,0.00501199
24.96,0.00530955
24.97,0.00563373
24.98,0.0059877
24.99,0.00637513
25,0.00680021
25.01,0.00726782
25.02,0.00778358
25.03,0.00835405
25.04,0.00898689
25.05,0.00969104
25.06,0.010477
25.07,0.0113572
25.08,0.0123461
25.09,0.0134611
25.1,0.0147225
25.11,0.0161545
25.12,0.0177855
25.13,0.0196491
25.14,0.0217845
25.15,0.0242368
25.16,0.027057
25.17,0.0303008
25.18,0.0340253
25.19,0.0382827
25.2,0.0431089
25.21,0.0485043
25.22,0.0544058
25.23,0.0606496
25.24,0.0669347
25.25,0.0728026
25.26,0.077666
25.27,0.0809089
25.28,0.0820509
25.29,0.0809089
25.3,0.077666
25.31,0.0728026
25.32,0.0669347
25.33,0.0606496
25.34,0.0544058
25.35,0.0485043
25.36,0.0431089
25.37,0.0382827
25.38,0.0340253
25.39,0.0303008
25.4,0.027057
25.41,0.0242368
25.42,0.0217845
25.43,0.0196491
25.44,0.0177855
25.45,0.0161545
25.46,0.0147225
25.47,0.0134611
25.48,0.0123461
25.49,0.0113572
25.5,0.010477
25.51,0.00969104
25.52,0.00898689
25.53,0.00835405
25.54,0.00778358
25.55,0.00726782
25.56,0.00680021
25.57,0.00637513
25.58,0.0059877
25.59,0.00563373
25.6,0.00530955
25.61,0.00501199
25.62,0.00473828
25.63,0.00448598
25.64,0.00425296
25.65,0.00403734
25.66,0.00383745
25.67,0.00365182
25.68,0.00347916
25.69,0.0033183
25.7,0.00316819
25.71,0.00302792
25.72,0.00289666
25.73,0.00277365
25.74,0.00265823
25.75,0.0025498
25.76,0.0024478
25.77,0.00235174
25.78,0.00226118
25.79,0.0021757
25.8,0.00209494
25.81,0.00201856
25.82,0.00194625
25.83,0.00187772
25.84,0.00181273
25.85,0.00175103
25.86,0.0016924
25.87,0.00163665
25.88,0.0015836
25.89,0.00153306
25.9,0.0014849
25.91,0.00143895
25.92,0.0013951
25.93,0.0013532
25.94,0.00131316
25.95,0.00127486
25.96,0.0012382
25.97,0.00120309
25.98,0.00116945
25.99,0.00113719
26,0.00110624
26.01,0.00107654
26.02,0.00104801
26.03,0.00102059
26.04,0.000994236
26.05,0.000968883
26.06,0.000944483
26.07,0.00092099
26.08,0.00089836
26.09,0.00087655
26.1,0.000855523
26.11,0.000835241
26.12,0.000815669
26.13,0.000796775
26.14,0.000778528
26.15,0.000760899
26.16,0.00074386
26.17,0.000727385
26.18,0.00071145
26.19,0.000696032
26.2,0.000681108
26.21,0.000666657
26.22,0.000652661
26.23,0.000639099
26.24,0.000625955
26.25,0.000613211
26.26,0.000600852
26.27,0.000588861
26.28,0.000577225
26.29,0.00056593
26.3,0.000554963
26.31,0.00054431
26.32,0.000533961
26.33,0.000523903
26.34,0.000514126
26.35,0.00050462
26.36,0.000495375
26.37,0.000486381
26.38,0.000477629
26.39,0.000469111
26.4,0.000460818
26.41,0.000452743
26.42,0.000444878
26.43,0.000437215
26.44,0.000429749
26.45,0.000422472
26.46,0.000415378
26.47,0.000408461
26.48,0.000401714
26.49,0.000395134
26.5,0.000388713
26.51,0.000382448
26.52,0.000376332
26.53,0.000370362
26.54,0.000364533
26.55,0.00035884
26.56,0.000353279
26.57,0.000347846
26.58,0.000342537
26.59,0.000337349
26.6,0.000332278
26.61,0.00032732
26.62,0.000322472
26.63,0.000317731
26.64,0.000313093
26.65,0.000308556
26.66,0.000304117
26.67,0.000299773
26.68,0.000295521
26.69,0.000291359
26.7,0.000287284
26.71,0.000283294
26.72,0.000279386
26.73,0.000275559
26.74,0.00027181
26.75,0.000268136
26.76,0.000264536
26.77,0.000261009
26.78,0.000257551
26.79,0.000254162
26.8,0.000250839
26.81,0.00024758
26.82,0.000244385
26.83,0.000241251
26.84,0.000238177
26.85,0.000235161
26.86,0.000232202
26.87,0.000229299
26.88,0.000226449
26.89,0.000223653
26.9,0.000220908
26.91,0.000218213
26.92,0.000215567
26.93,0.000212968
26.94,0.000210417
26.95,0.000207911
26.96,0.000205449
26.97,0.000203031
26.98,0.000200655
26.99,0.000198321

File: curve_total_fit.dat
24.0,0.0628533
24.01,0.0628588
24.02,0.0628645
24.03,0.0628704
24.04,0.0628763
24.05,0.0628824
24.06,0.0628887
24.07,0.0628951
24.08,0.0629017
24.09,0.0629085
24.1,0.0629154
24.11,0.0629225
24.12,0.0629297
24.13,0.0629372
24.14,0.0629449
24.15,0.0629527
24.16,0.0629608
24.17,0.0629691
24.18,0.0629776
24.19,0.0629864
24.2,0.0629954
24.21,0.0630046
24.22,0.0630141
24.23,0.0630239
24.24,0.063034
24.25,0.0630443
24.26,0.063055
24.27,0.0630659
24.28,0.0630772
24.29,0.0630889
24.3,0.0631009
24.31,0.0631132
24.32,0.063126
24.33,0.0631391
24.34,0.0631527
24.35,0.0631667
24.36,0.0631811
24.37,0.063196
24.38,0.0632114
24.39,0.0632274
24.4,0.0632439
24.41,0.0632609
24.42,0.0632785
24.43,0.0632968
24.44,0.0633157
24.45,0.0633352
24.46,0.0633555
24.47,0.0633766
24.48,0.0633984
24.49,0.063421
24.5,0.0634445
24.51,0.0634689
24.52,0.0634942
24.53,0.0635206
24.54,0.063548
24.55,0.0635765
24.56,0.0636062
24.57,0.0636372
24.58,0.0636694
24.59,0.0637031
24.6,0.0637382
24.61,0.0637749
24.62,0.0638132
24.63,0.0638532
24.64,0.0638951
24.65,0.063939
24.66,0.0639849
24.67,0.0640331
24.68,0.0640836
24.69,0.0641367
24.7,0.0641924
24.71,0.064251
24.72,0.0643127
24.73,0.0643777
24.74,0.0644462
24.75,0.0645186
24.76,0.0645949
24.77,0.0646757
24.78,0.0647612
24.79,0.0648517
24.8,0.0649478
24.81,0.0650498
24.82,0.0651582
24.83,0.0652737
24.84,0.0653967
24.85,0.0655279
24.86,0.0656682
24.87,0.0658183
24.88,0.0659792
24.89,0.0661518
24.9,0.0663374
24.91,0.0665373
24.92,0.066753
24.93,0.066986
24.94,0.0672383
24.95,0.067512
24.96,0.0678095
24.97,0.0681337
24.98,0.0684877
24.99,0.0688751
25,0.0693002
25.01,0.0697678
25.02,0.0702836
25.03,0.070854
25.04,0.0714869
25.05,0.072191
25.06,0.072977
25.07,0.0738572
25.08,0.0748461
25.09,0.0759611
25.1,0.0772225
25.11,0.0786545
25.12,0.0802855
25.13,0.0821491
25.14,0.0842845
25.15,0.0867368
25.16,0.089557
25.17,0.0928008
25.18,0.0965253
25.19,0.100783
25.2,0.105609
25.21,0.111004
25.22,0.116906
25.23,0.12315
25.24,0.129435
25.25,0.135303
25.26,0.140166
25.27,0.143409
25.28,0.144551
25.29,0.143409
25.3,0.140166
25.31,0.135303
25.32,0.129435
25.33,0.12315
25.34,0.116906
25.35,0.111004
25.36,0.105609
25.37,0.100783
25.38,0.0965253
25.39,0.0928008
25.4,0.089557
25.41,0.0867368
25.42,0.0842845
25.43,0.0821491
25.44,0.0802855
25.45,0.0786545
25.46,0.0772225
25.47,0.0759611
25.48,0.0748461
25.49,0.0738572
25.5,0.072977
25.51,0.072191
25.52,0.0714869
25.53,0.070854
25.54,0.0702836
25.55,0.0697678
25.56,0.0693002
25.57,0.0688751
25.58,0.0684877
25.59,0.0681337
25.6,0.0678095
25.61,0.067512
25.62,0.0672383
25.63,0.066986
25.64,0.066753
25.65,0.0665373
25.66,0.0663374
25.67,0.0661518
25.68,0.0659792
25.69,0.0658183
25.7,0.0656682
25.71,0.0655279
25.72,0.0653967
25.73,0.0652737
25.74,0.0651582
25.75,0.0650498
25.76,0.0649478
25.77,0.0648517
25.78,0.0647612
25.79,0.0646757
25.8,0.0645949
25.81,0.0645186
25.82,0.0644462
25.83,0.0643777
25.84,0.0643127
25.85,0.064251
25.86,0.0641924
25.87,0.0641367
25.88,0.0640836
25.89,0.0640331
25.9,0.0639849
25.91,0.063939
25.92,0.0638951
25.93,0.0638532
25.94,0.0638132
25.95,0.0637749
25.96,0.0637382
25.97,0.0637031
25.98,0.0636694
25.99,0.0636372
26,0.0636062
26.01,0.0635765
26.02,0.063548
26.03,0.0635206
26.04,0.0634942
26.05,0.0634689
26.06,0.0634445
26.07,0.063421
26.08,0.0633984
26.09,0.0633766
26.1,0.0633555
26.11,0.0633352
26.12,0.0633157
26.13,0.0632968
26.14,0.0632785
26.15,0.0632609
26.16,0.0632439
26.17,0.0632274
26.18,0.0632114
26.19,0.063196
26.2,0.0631811
26.21,0.0631667
26.22,0.0631527
26.23,0.0631391
26.24,0.063126
26.25,0.0631132
26.26,0.0631009
26.27,0.0630889
26.28,0.0630772
26.29,0.0630659
26.3,0.063055
26.31,0.0630443
26.32,0.063034
26.33,0.0630239
26.34,0.0630141
26.35,0.0630046
26.36,0.0629954
26.37,0.0629864
26.38,0.0629776
26.39,0.0629691
26.4,0.0629608
26.41,0.0629527
26.42,0.0629449
26.43,0.0629372
26.44,0.0629297
26.45,0.0629225
26.46,0.0629154
26.47,0.0629085
26.48,0.0629017
26.49,0.0628951
26.5,0.0628887
26.51,0.0628824
26.52,0.0628763
26.53,0.0628704
26.54,0.0628645
26.55,0.0628588
26.56,0.0628533
26.57,0.0628478
26.58,0.0628425
26.59,0.0628373
26.6,0.0628323
26.61,0.0628273
26.62,0.0628225
26.63,0.0628177
26.64,0.0628131
26.65,0.0628086
26.66,0.0628041
26.67,0.0627998
26.68,0.0627955
26.69,0.0627914
26.7,0.0627873
26.71,0.0627833
26.72,0.0627794
26.73,0.0627756
26.74,0.0627718
26.75,0.0627681
26.76,0.0627645
26.77,0.062761
26.78,0.0627576
26.79,0.0627542
26.8,0.0627508
26.81,0.0627476
26.82,0.0627444
26.83,0.0627413
26.84,0.0627382
26.85,0.0627352
26.86,0.0627322
26.87,0.0627293
26.88,0.0627264
26.89,0.0627237
26.9,0.0627209
26.91,0.0627182
26.92,0.0627156
26.93,0.062713
26.94,0.0627104
26.95,0.0627079
26.96,0.0627054
26.97,0.062703
26.98,0.0627007
26.99,0.0626983

File: xrd.csv
24.2782, 0.0634991
24.9407, 0.0619459
25.1333, 0.0809852
25.2719, 0.14379
25.4672, 0.0811846
25.6612, 0.0649337
26.2011, 0.0633116
26.7009, 0.0621673
27.0335, 0.0658306