Folder: superconductor_data/pb/bose_2007/40nm/xrd

Note: pb/bose_2007/40nm/xrd/summary.md
## XRD Analysis

#### Curve 1 (001 Peak)
**Type**: Lorentzian\
**amplitude** 65.85\
**center**: 36.3\
**Ïƒ**: 0.295



## S<sup>2</sup>

**Amplitude of (111) Peak:** 311.17\
**E<sub>110</sub>:** 0.09775616090567216




**T<sub>C</sub>:**  7.23 K


## Reference

XRD from Figure 4.3 of Bose\
T<sub>C</sub> from Table 4.5 of Bose



S. Bose, Size Effects in Nanostructured Superconductors, PhD Thesis, 2007.
https://www.tifr.res.in/~superconductivity/pdfs/sangitabose.pdf

Note: README.md
[![DOI](https://zenodo.org/badge/DOI/10.5281/zenodo.3904782.svg)](https://doi.org/10.5281/zenodo.3904782)


Data Extraction Repository for
R.A Makin and S.M. Durbin, “Structural motifs: A potential pathway to superconductivity at standard temperature and pressure.”


### References


## YBCO

[1] C. Camerlingo, I. Delfino, and M. Lepore, Supercond. Sci. Technol. 15, 1606 (2002).\
    (https://doi.org/10.1088%2F0953-2048%2F15%2F11%2F321)


## Pb

[1] S. Bose, Size Effects in Nanostructured Superconductors, PhD Thesis, 2007.
https://www.tifr.res.in/~superconductivity/pdfs/sangitabose.pdf

## Nb

[1] S. Bose, Size Effects in Nanostructured Superconductors, PhD Thesis, 2007.
https://www.tifr.res.in/~superconductivity/pdfs/sangitabose.pdf

[2] C. T. Wu, Thin Solid Films 64, 103 (1979).\
https://doi.org/10.1016/0040-6090(79)90549-2

[3] G. Wu, A.-M. Valente, H. L. Phillips, H. Wang, A. T. Wu, T. J. Renk, and P. Provencio, Thin Solid Films 489, 56 (2005).\
https://doi.org/10.1016/j.tsf.2005.04.099

## Nb3Sn

[1] K. Kwasnitza, A. V. Narlikar, H. U. Nissen, and D. Salathé, Cryogenics 20, 715 (1980).\
https://doi.org/10.1016/0011-2275(80)90026-0

[2]G. Rosaz, S. Calatroni, F. Leaux, F. Motschmann, Z. Mydlarz, M. Taborelli, and W. Vollenberg, Development of Nb3Sn Coatings by Magnetron Sputtering for SRF Cavities, Proceedings of the 17th International Conference on RF Superconductivity SRF2015, 4 pages (2015). https://doi.org/10.18429/JACOW-SRF2015-TUPB051


## Nb3Ge

[1] M. Akinaga and T. Ueno, Applied Surface Science 33–34, 1269 (1988). \
https://doi.org/10.1016/0169-4332(88)90444-8

[2] S. Mase, T. Fukami, and S. Takano, Phase Transitions 8, 187 (1987).\
https://doi.org/10.1080/01411598708209375


## Nb3Al

[1] P. Li, W. Zhang, W. Lin, G. Wang, X. Pan, Z. Yu, X. Yang, B. Sun, G. Yan, Y. Zhang, C. H. Cheng, Y. Feng, and Y. Zhao, Journal of Alloys and Compounds 742, 130 (2018).\
https://doi.org/10.1016/j.jallcom.2018.01.248


## MgB2

[1] S. K. Chen, A. Serquis, G. Serrano, K. A. Yates, M. G. Blamire, D. Guthrie, J. Cooper, H. Wang, S. Margadonna, and J. L. MacManus‐Driscoll, Advanced Functional Materials 18, 113 (2008).\
(https://doi.org/10.1002/adfm.200700254)

[2] J. Nagamatsu, N. Nakagawa, T. Muranaka, Y. Zenitani, and J. Akimitsu, Nature 410, 63 (2001).\
 (https://doi.org/10.1038/35065039)

[3] Y. Wang, C. Zhuang, X. Sun, X. Huang, Q. Fu, Z. Liao, D. Yu, and Q. Feng, Supercond. Sci. Technol. 22, 125015 (2009).\
(https://doi.org/10.1088%2F0953-2048%2F22%2F12%2F125015)

[4] K. A. Yates, Burnell, N. A. Stelmashenko, D.-J. Kang, H. N. Lee, B. Oh, and M. G. Blamire, Phys. Rev. B 68, 220512 (2003).\
(https://doi.org/10.1103/PhysRevB.68.220512)

[5] K. A. Yates, G. Burnell, Z. Lockman, A. Kursumovic, J. L. MacManus Driscoll, and M. G. Blamire, Journal of Physics and Chemistry of Solids 67, 333 (2006).\
(https://doi.org/10.1016/j.jpcs.2005.10.114)

[6] C. Terzioglu, A. Varilci, and I. Belenli, Investigation of Effect of Annealing Temperature on Mechanical Prop

File: curve_1_fit.dat
35.0,0.826725
35.01,0.839339
35.02,0.852244
35.03,0.865447
35.04,0.878958
35.05,0.892786
35.06,0.906941
35.07,0.921435
35.08,0.936276
35.09,0.951478
35.1,0.967051
35.11,0.983007
35.12,0.99936
35.13,1.01612
35.14,1.03331
35.15,1.05093
35.16,1.069
35.17,1.08754
35.18,1.10657
35.19,1.1261
35.2,1.14614
35.21,1.16672
35.22,1.18786
35.23,1.20957
35.24,1.23189
35.25,1.25481
35.26,1.27839
35.27,1.30262
35.28,1.32755
35.29,1.3532
35.3,1.37959
35.31,1.40675
35.32,1.43472
35.33,1.46353
35.34,1.4932
35.35,1.52378
35.36,1.5553
35.37,1.5878
35.38,1.62132
35.39,1.65591
35.4,1.6916
35.41,1.72845
35.42,1.7665
35.43,1.80582
35.44,1.84644
35.45,1.88844
35.46,1.93188
35.47,1.97682
35.48,2.02332
35.49,2.07147
35.5,2.12134
35.51,2.173
35.52,2.22656
35.53,2.2821
35.54,2.33972
35.55,2.39951
35.56,2.4616
35.57,2.5261
35.58,2.59313
35.59,2.66283
35.6,2.73533
35.61,2.81079
35.62,2.88937
35.63,2.97123
35.64,3.05657
35.65,3.14557
35.66,3.23845
35.67,3.33543
35.68,3.43675
35.69,3.54266
35.7,3.65345
35.71,3.76942
35.72,3.89087
35.73,4.01816
35.74,4.15165
35.75,4.29175
35.76,4.43889
35.77,4.59353
35.78,4.75618
35.79,4.92738
35.8,5.10773
35.81,5.29786
35.82,5.49848
35.83,5.71035
35.84,5.93428
35.85,6.17117
35.86,6.42201
35.87,6.68787
35.88,6.9699
35.89,7.2694
35.9,7.58776
35.91,7.92651
35.92,8.28734
35.93,8.67208
35.94,9.08277
35.95,9.52164
35.96,9.99114
35.97,10.494
35.98,11.0331
35.99,11.6118
36,12.2336
36.01,12.9026
36.02,13.623
36.03,14.3997
36.04,15.2379
36.05,16.1433
36.06,17.122
36.07,18.181
36.08,19.3273
36.09,20.5688
36.1,21.9135
36.11,23.37
36.12,24.9468
36.13,26.6523
36.14,28.4946
36.15,30.4804
36.16,32.6147
36.17,34.8997
36.18,37.3338
36.19,39.9096
36.2,42.6124
36.21,45.4185
36.22,48.2929
36.23,51.1878
36.24,54.0417
36.25,56.7795
36.26,59.3149
36.27,61.5546
36.28,63.4045
36.29,64.7788
36.3,65.6083
36.31,65.8492
36.32,65.4885
36.33,64.5456
36.34,63.07
36.35,61.1349
36.36,58.8284
36.37,56.2452
36.38,53.4776
36.39,50.61
36.4,47.7147
36.41,44.8505
36.42,42.0627
36.43,39.3837
36.44,36.8353
36.45,34.4307
36.46,32.1758
36.47,30.0715
36.48,28.1149
36.49,26.3005
36.5,24.6214
36.51,23.0693
36.52,21.6359
36.53,20.3125
36.54,19.0907
36.55,17.9624
36.56,16.9201
36.57,15.9565
36.58,15.0651
36.59,14.2397
36.6,13.4746
36.61,12.7648
36.62,12.1056
36.63,11.4927
36.64,10.9222
36.65,10.3906
36.66,9.89466
36.67,9.4315
36.68,8.99845
36.69,8.59312
36.7,8.21332
36.71,7.85705
36.72,7.52251
36.73,7.20804
36.74,6.91214
36.75,6.63344
36.76,6.37068
36.77,6.12271
36.78,5.88848
36.79,5.66704
36.8,5.45749
36.81,5.25902
36.82,5.0709
36.83,4.89243
36.84,4.72298
36.85,4.56198
36.86,4.40888
36.87,4.26318
36.88,4.12444
36.89,3.99222
36.9,3.86612
36.91,3.7458
36.92,3.63089
36.93,3.5211
36.94,3.41612
36.95,3.31569
36.96,3.21955
36.97,3.12747
36.98,3.03921
36.99,2.95459
37,2.87339
37.01,2.79545
37.02,2.7206
37.03,2.64867
37.04,2.57952
37.05,2.513
37.06,2.449
37.07,2.38737
37.08,2.32802
37.09,2.27083
37.1,2.2157
37.11,2.16252
37.12,2.11122
37.13,2.0617
37.14,2.01389
37.15,1.96771
37.16,1.92308
37.17,1.87993
37.18,1.83821
37.19,1.79785
37.2,1.75879
37.21,1.72098
37.22,1.68437
37.23,1.6489
37.24,1.61453
37.25,1.58122
37.26,1.54892
37.27,1.51759
37.28,1.4872
37.29,1.4577
37.3,1.42906
37.31,1.40126
37.32,1.37425
37.33,1.34801
37.34,1.32251
37.35,1.29772
37.36,1.27362
37.37,1.25018
37.38,1.22737
37.39,1.20518
37.4,1.18359
37.41,1.16256
37.42,1.14209
37.43,1.12215
37.44,1.10273
37.45,1.0838
37.46,1.06535
37.47,1.04737
37.48,1.02984
37.49,1.01274
37.5,0.996057
37.51,0.979785
37.52,0.963906
37.53,0.948408
37.54,0.93328
37.55,0.918508
37.56,0.904084
37.57,0.889994
37.58,0.87623
37.59,0.862782
37.6,0.849639
37.61,0.836794
37.62,0.824236
37.63,0.811957
37.64,0.79995
37.65,0.788206
37.66,0.776718
37.67,0.765478
37.68,0.75448
37.69,0.743716
37.7,0.733179
37.71,0.722865
37.72,0.712765
37.73,0.702875
37.74,0.693189
37.75,0.683701
37.76,0.674406
37.77,0.665298
37.78,0.656374
37.79,0.647626
37.8,0.639052
37.81,0.630647
37.82,0.622406
37.83,0.614325
37.84,0.606399
37.85,0.598626
37.86,0.591001
37.87,0.58352
37.88,0.57618
37.89,0.568977
37.9,0.561908
37.91,0.554969
37.92,0.548158
37.93,0.541471
37.94,0.534905
37.95,0.528458
37.96,0.522126
37.97,0.515908
37.98,0.509799
37.99,0.503798
37.999,0.498487

File: curve_total_fit.dat
35.0,468.827
35.01,468.839
35.02,468.852
35.03,468.865
35.04,468.879
35.05,468.893
35.06,468.907
35.07,468.921
35.08,468.936
35.09,468.951
35.1,468.967
35.11,468.983
35.12,468.999
35.13,469.016
35.14,469.033
35.15,469.051
35.16,469.069
35.17,469.088
35.18,469.107
35.19,469.126
35.2,469.146
35.21,469.167
35.22,469.188
35.23,469.21
35.24,469.232
35.25,469.255
35.26,469.278
35.27,469.303
35.28,469.328
35.29,469.353
35.3,469.38
35.31,469.407
35.32,469.435
35.33,469.464
35.34,469.493
35.35,469.524
35.36,469.555
35.37,469.588
35.38,469.621
35.39,469.656
35.4,469.692
35.41,469.728
35.42,469.767
35.43,469.806
35.44,469.846
35.45,469.888
35.46,469.932
35.47,469.977
35.48,470.023
35.49,470.071
35.5,470.121
35.51,470.173
35.52,470.227
35.53,470.282
35.54,470.34
35.55,470.4
35.56,470.462
35.57,470.526
35.58,470.593
35.59,470.663
35.6,470.735
35.61,470.811
35.62,470.889
35.63,470.971
35.64,471.057
35.65,471.146
35.66,471.238
35.67,471.335
35.68,471.437
35.69,471.543
35.7,471.653
35.71,471.769
35.72,471.891
35.73,472.018
35.74,472.152
35.75,472.292
35.76,472.439
35.77,472.594
35.78,472.756
35.79,472.927
35.8,473.108
35.81,473.298
35.82,473.498
35.83,473.71
35.84,473.934
35.85,474.171
35.86,474.422
35.87,474.688
35.88,474.97
35.89,475.269
35.9,475.588
35.91,475.927
35.92,476.287
35.93,476.672
35.94,477.083
35.95,477.522
35.96,477.991
35.97,478.494
35.98,479.033
35.99,479.612
36,480.234
36.01,480.903
36.02,481.623
36.03,482.4
36.04,483.238
36.05,484.143
36.06,485.122
36.07,486.181
36.08,487.327
36.09,488.569
36.1,489.913
36.11,491.37
36.12,492.947
36.13,494.652
36.14,496.495
36.15,498.48
36.16,500.615
36.17,502.9
36.18,505.334
36.19,507.91
36.2,510.612
36.21,513.419
36.22,516.293
36.23,519.188
36.24,522.042
36.25,524.779
36.26,527.315
36.27,529.555
36.28,531.405
36.29,532.779
36.3,533.608
36.31,533.849
36.32,533.488
36.33,532.546
36.34,531.07
36.35,529.135
36.36,526.828
36.37,524.245
36.38,521.478
36.39,518.61
36.4,515.715
36.41,512.851
36.42,510.063
36.43,507.384
36.44,504.835
36.45,502.431
36.46,500.176
36.47,498.071
36.48,496.115
36.49,494.301
36.5,492.621
36.51,491.069
36.52,489.636
36.53,488.312
36.54,487.091
36.55,485.962
36.56,484.92
36.57,483.957
36.58,483.065
36.59,482.24
36.6,481.475
36.61,480.765
36.62,480.106
36.63,479.493
36.64,478.922
36.65,478.391
36.66,477.895
36.67,477.431
36.68,476.998
36.69,476.593
36.7,476.213
36.71,475.857
36.72,475.523
36.73,475.208
36.74,474.912
36.75,474.633
36.76,474.371
36.77,474.123
36.78,473.888
36.79,473.667
36.8,473.457
36.81,473.259
36.82,473.071
36.83,472.892
36.84,472.723
36.85,472.562
36.86,472.409
36.87,472.263
36.88,472.124
36.89,471.992
36.9,471.866
36.91,471.746
36.92,471.631
36.93,471.521
36.94,471.416
36.95,471.316
36.96,471.22
36.97,471.127
36.98,471.039
36.99,470.955
37,470.873
37.01,470.795
37.02,470.721
37.03,470.649
37.04,470.58
37.05,470.513
37.06,470.449
37.07,470.387
37.08,470.328
37.09,470.271
37.1,470.216
37.11,470.163
37.12,470.111
37.13,470.062
37.14,470.014
37.15,469.968
37.16,469.923
37.17,469.88
37.18,469.838
37.19,469.798
37.2,469.759
37.21,469.721
37.22,469.684
37.23,469.649
37.24,469.615
37.25,469.581
37.26,469.549
37.27,469.518
37.28,469.487
37.29,469.458
37.3,469.429
37.31,469.401
37.32,469.374
37.33,469.348
37.34,469.323
37.35,469.298
37.36,469.274
37.37,469.25
37.38,469.227
37.39,469.205
37.4,469.184
37.41,469.163
37.42,469.142
37.43,469.122
37.44,469.103
37.45,469.084
37.46,469.065
37.47,469.047
37.48,469.03
37.49,469.013
37.5,468.996
37.51,468.98
37.52,468.964
37.53,468.948
37.54,468.933
37.55,468.919
37.56,468.904
37.57,468.89
37.58,468.876
37.59,468.863
37.6,468.85
37.61,468.837
37.62,468.824
37.63,468.812
37.64,468.8
37.65,468.788
37.66,468.777
37.67,468.765
37.68,468.754
37.69,468.744
37.7,468.733
37.71,468.723
37.72,468.713
37.73,468.703
37.74,468.693
37.75,468.684
37.76,468.674
37.77,468.665
37.78,468.656
37.79,468.648
37.8,468.639
37.81,468.631
37.82,468.622
37.83,468.614
37.84,468.606
37.85,468.599
37.86,468.591
37.87,468.584
37.88,468.576
37.89,468.569
37.9,468.562
37.91,468.555
37.92,468.548
37.93,468.541
37.94,468.535
37.95,468.528
37.96,468.522
37.97,468.516
37.98,468.51
37.99,468.504
37.999,468.498

File: xrd.csv
35.8485, 470.677
36.008, 483.57
36.1337, 496.649
36.2094, 511.554
36.296, 533.353
36.4292, 509.068
36.5531, 485.535
36.7421, 472.572
36.89, 467.939