Folder: superconductor_data/mgb2/chen_2008/mg_0.98/xrd

Note: mgb2/chen_2008/mg_0.98/xrd/summary.md
## XRD Analysis

#### Curve 1 (001 Peak)
**Type**: Lorentzian\
**amplitude** 1.99e-2\
**center**: 25.12\
**σ**: 0.260



## S<sup>2</sup>
**Amplitude of (002) Peak:** 0.11112\
**E<sub>200</sub>:** 0.0730119405040813

Calculated by using S<sup>2</sup> and E<sub>200</sub> value of the Mg<sub>0.95</sub> film.\
**S<sup>2</sup>:** 0.1369

## T<sub>C</sub>
**T<sub>C</sub>:**  37.5 K


### Reference
XRD from Figure 10 of Chen et al.\
T<sub>C</sub> given in Table 1 of Chen et al.


S. K. Chen, A. Serquis, G. Serrano, K. A. Yates, M. G. Blamire, D. Guthrie, J. Cooper, H. Wang, S. Margadonna, and J. L. MacManus‐Driscoll, Advanced Functional Materials 18, 113 (2008).


(https://doi.org/10.1002/adfm.200700254)

Note: README.md
[![DOI](https://zenodo.org/badge/DOI/10.5281/zenodo.3904782.svg)](https://doi.org/10.5281/zenodo.3904782)


Data Extraction Repository for
R.A Makin and S.M. Durbin, “Structural motifs: A potential pathway to superconductivity at standard temperature and pressure.”


### References


## YBCO

[1] C. Camerlingo, I. Delfino, and M. Lepore, Supercond. Sci. Technol. 15, 1606 (2002).\
    (https://doi.org/10.1088%2F0953-2048%2F15%2F11%2F321)


## Pb

[1] S. Bose, Size Effects in Nanostructured Superconductors, PhD Thesis, 2007.
https://www.tifr.res.in/~superconductivity/pdfs/sangitabose.pdf

## Nb

[1] S. Bose, Size Effects in Nanostructured Superconductors, PhD Thesis, 2007.
https://www.tifr.res.in/~superconductivity/pdfs/sangitabose.pdf

[2] C. T. Wu, Thin Solid Films 64, 103 (1979).\
https://doi.org/10.1016/0040-6090(79)90549-2

[3] G. Wu, A.-M. Valente, H. L. Phillips, H. Wang, A. T. Wu, T. J. Renk, and P. Provencio, Thin Solid Films 489, 56 (2005).\
https://doi.org/10.1016/j.tsf.2005.04.099

## Nb3Sn

[1] K. Kwasnitza, A. V. Narlikar, H. U. Nissen, and D. Salathé, Cryogenics 20, 715 (1980).\
https://doi.org/10.1016/0011-2275(80)90026-0

[2]G. Rosaz, S. Calatroni, F. Leaux, F. Motschmann, Z. Mydlarz, M. Taborelli, and W. Vollenberg, Development of Nb3Sn Coatings by Magnetron Sputtering for SRF Cavities, Proceedings of the 17th International Conference on RF Superconductivity SRF2015, 4 pages (2015). https://doi.org/10.18429/JACOW-SRF2015-TUPB051


## Nb3Ge

[1] M. Akinaga and T. Ueno, Applied Surface Science 33–34, 1269 (1988). \
https://doi.org/10.1016/0169-4332(88)90444-8

[2] S. Mase, T. Fukami, and S. Takano, Phase Transitions 8, 187 (1987).\
https://doi.org/10.1080/01411598708209375


## Nb3Al

[1] P. Li, W. Zhang, W. Lin, G. Wang, X. Pan, Z. Yu, X. Yang, B. Sun, G. Yan, Y. Zhang, C. H. Cheng, Y. Feng, and Y. Zhao, Journal of Alloys and Compounds 742, 130 (2018).\
https://doi.org/10.1016/j.jallcom.2018.01.248


## MgB2

[1] S. K. Chen, A. Serquis, G. Serrano, K. A. Yates, M. G. Blamire, D. Guthrie, J. Cooper, H. Wang, S. Margadonna, and J. L. MacManus‐Driscoll, Advanced Functional Materials 18, 113 (2008).\
(https://doi.org/10.1002/adfm.200700254)

[2] J. Nagamatsu, N. Nakagawa, T. Muranaka, Y. Zenitani, and J. Akimitsu, Nature 410, 63 (2001).\
 (https://doi.org/10.1038/35065039)

[3] Y. Wang, C. Zhuang, X. Sun, X. Huang, Q. Fu, Z. Liao, D. Yu, and Q. Feng, Supercond. Sci. Technol. 22, 125015 (2009).\
(https://doi.org/10.1088%2F0953-2048%2F22%2F12%2F125015)

[4] K. A. Yates, Burnell, N. A. Stelmashenko, D.-J. Kang, H. N. Lee, B. Oh, and M. G. Blamire, Phys. Rev. B 68, 220512 (2003).\
(https://doi.org/10.1103/PhysRevB.68.220512)

[5] K. A. Yates, G. Burnell, Z. Lockman, A. Kursumovic, J. L. MacManus Driscoll, and M. G. Blamire, Journal of Physics and Chemistry of Solids 67, 333 (2006).\
(https://doi.org/10.1016/j.jpcs.2005.10.114)

[6] C. Terzioglu, A. Varilci, and I. Belenli, Investigation of Effect of Annealing Temperature on Mechanical Prop

File: curve_1_fit.dat
24.0,0.000263689
24.01,0.000268387
24.02,0.00027321
24.03,0.000278164
24.04,0.000283253
24.05,0.000288482
24.06,0.000293857
24.07,0.000299383
24.08,0.000305065
24.09,0.00031091
24.1,0.000316923
24.11,0.000323111
24.12,0.000329482
24.13,0.000336041
24.14,0.000342798
24.15,0.000349759
24.16,0.000356933
24.17,0.000364328
24.18,0.000371954
24.19,0.000379821
24.2,0.000387938
24.21,0.000396316
24.22,0.000404967
24.23,0.000413902
24.24,0.000423134
24.25,0.000432676
24.26,0.000442542
24.27,0.000452747
24.28,0.000463306
24.29,0.000474235
24.3,0.000485553
24.31,0.000497277
24.32,0.000509427
24.33,0.000522024
24.34,0.000535089
24.35,0.000548647
24.36,0.000562721
24.37,0.000577338
24.38,0.000592526
24.39,0.000608315
24.4,0.000624737
24.41,0.000641825
24.42,0.000659616
24.43,0.000678148
24.44,0.000697463
24.45,0.000717604
24.46,0.000738619
24.47,0.000760557
24.48,0.000783475
24.49,0.000807429
24.5,0.000832482
24.51,0.000858702
24.52,0.00088616
24.53,0.000914935
24.54,0.000945111
24.55,0.000976778
24.56,0.00101003
24.57,0.00104499
24.58,0.00108175
24.59,0.00112045
24.6,0.00116121
24.61,0.0012042
24.62,0.00124956
24.63,0.00129747
24.64,0.00134812
24.65,0.00140172
24.66,0.00145849
24.67,0.00151868
24.68,0.00158257
24.69,0.00165045
24.7,0.00172265
24.71,0.00179953
24.72,0.00188149
24.73,0.00196897
24.74,0.00206245
24.75,0.00216246
24.76,0.00226961
24.77,0.00238454
24.78,0.002508
24.79,0.00264079
24.8,0.00278382
24.81,0.00293809
24.82,0.00310473
24.83,0.00328499
24.84,0.00348025
24.85,0.00369209
24.86,0.00392223
24.87,0.00417261
24.88,0.00444536
24.89,0.00474286
24.9,0.00506775
24.91,0.00542289
24.92,0.00581144
24.93,0.00623677
24.94,0.0067025
24.95,0.00721236
24.96,0.00777017
24.97,0.00837958
24.98,0.00904388
24.99,0.0097656
25,0.010546
25.01,0.0113846
25.02,0.0122778
25.03,0.0132184
25.04,0.0141946
25.05,0.0151881
25.06,0.0161743
25.07,0.0171217
25.08,0.0179925
25.09,0.0187456
25.1,0.0193399
25.11,0.0197389
25.12,0.0199163
25.13,0.0198599
25.14,0.0195736
25.15,0.0190769
25.16,0.0184014
25.17,0.0175865
25.18,0.0166739
25.19,0.0157036
25.2,0.0147103
25.21,0.0137225
25.22,0.0127615
25.23,0.0118424
25.24,0.0109749
25.25,0.010164
25.26,0.00941181
25.27,0.0087179
25.28,0.00808033
25.29,0.00749614
25.3,0.00696182
25.31,0.00647362
25.32,0.00602775
25.33,0.00562051
25.34,0.00524841
25.35,0.00490817
25.36,0.00459678
25.37,0.00431147
25.38,0.00404974
25.39,0.00380934
25.4,0.00358821
25.41,0.00338454
25.42,0.00319666
25.43,0.0030231
25.44,0.00286255
25.45,0.00271381
25.46,0.00257582
25.47,0.00244761
25.48,0.00232835
25.49,0.00221724
25.5,0.00211359
25.51,0.00201679
25.52,0.00192625
25.53,0.00184148
25.54,0.00176201
25.55,0.00168743
25.56,0.00161734
25.57,0.00155142
25.58,0.00148934
25.59,0.00143082
25.6,0.0013756
25.61,0.00132345
25.62,0.00127413
25.63,0.00122747
25.64,0.00118327
25.65,0.00114137
25.66,0.00110162
25.67,0.00106386
25.68,0.00102799
25.69,0.000993862
25.7,0.000961382
25.71,0.000930442
25.72,0.00090095
25.73,0.000872818
25.74,0.000845963
25.75,0.000820312
25.76,0.000795795
25.77,0.000772346
25.78,0.000749906
25.79,0.000728417
25.8,0.000707828
25.81,0.000688089
25.82,0.000669156
25.83,0.000650985
25.84,0.000633536
25.85,0.000616772
25.86,0.000600658
25.87,0.000585161
25.88,0.000570251
25.89,0.000555897
25.9,0.000542075
25.91,0.000528756
25.92,0.000515919
25.93,0.000503539
25.94,0.000491596
25.95,0.00048007
25.96,0.000468941
25.97,0.000458191
25.98,0.000447804
25.99,0.000437764
26,0.000428056
26.01,0.000418664
26.02,0.000409576
26.03,0.000400779
26.04,0.000392261
26.05,0.000384009
26.06,0.000376013
26.07,0.000368263
26.08,0.000360749
26.09,0.000353461
26.1,0.000346391
26.11,0.000339529
26.12,0.000332868
26.13,0.0003264
26.14,0.000320118
26.15,0.000314014
26.16,0.000308083
26.17,0.000302317
26.18,0.000296711
26.19,0.000291258
26.2,0.000285954
26.21,0.000280792
26.22,0.000275769
26.23,0.000270878
26.24,0.000266116
26.25,0.000261478
26.26,0.000256959
26.27,0.000252556
26.28,0.000248265
26.29,0.000244082
26.3,0.000240003
26.31,0.000236025
26.32,0.000232145
26.33,0.00022836
26.34,0.000224665
26.35,0.00022106
26.36,0.00021754
26.37,0.000214104
26.38,0.000210748
26.39,0.00020747
26.4,0.000204267
26.41,0.000201138
26.42,0.00019808
26.43,0.000195091
26.44,0.000192169
26.45,0.000189312
26.46,0.000186518
26.47,0.000183785
26.48,0.000181112
26.49,0.000178496
26.5,0.000175936
26.51,0.000173431
26.52,0.000170979
26.53,0.000168579
26.54,0.000166228
26.55,0.000163926
26.56,0.000161672
26.57,0.000159463
26.58,0.0001573
26.59,0.00015518
26.6,0.000153102
26.61,0.000151066
26.62,0.00014907
26.63,0.000147113
26.64,0.000145195
26.65,0.000143314
26.66,0.000141468
26.67,0.000139659
26.68,0.000137883
26.69,0.000136141
26.7,0.000134432
26.71,0.000132755
26.72,0.000131109
26.73,0.000129494
26.74,0.000127907
26.75,0.00012635
26.76,0.000124821
26.77,0.00012332
26.78,0.000121845
26.79,0.000120397
26.8,0.000118974
26.81,0.000117577
26.82,0.000116203
26.83,0.000114854
26.84,0.000113528
26.85,0.000112225
26.86,0.000110944
26.87,0.000109685
26.88,0.000108447
26.89,0.00010723
26.9,0.000106033
26.91,0.000104856
26.92,0.000103698
26.93,0.00010256
26.94,0.00010144
26.95,0.000100339
26.96,9.92548e-05
26.97,9.81885e-05
26.98,9.71392e-05
26.99,9.61066e-05

File: curve_total_fit.dat
24.0,0.204984
24.01,0.204988
24.02,0.204993
24.03,0.204998
24.04,0.205003
24.05,0.205008
24.06,0.205014
24.07,0.205019
24.08,0.205025
24.09,0.205031
24.1,0.205037
24.11,0.205043
24.12,0.205049
24.13,0.205056
24.14,0.205063
24.15,0.20507
24.16,0.205077
24.17,0.205084
24.18,0.205092
24.19,0.2051
24.2,0.205108
24.21,0.205116
24.22,0.205125
24.23,0.205134
24.24,0.205143
24.25,0.205153
24.26,0.205163
24.27,0.205173
24.28,0.205183
24.29,0.205194
24.3,0.205206
24.31,0.205217
24.32,0.205229
24.33,0.205242
24.34,0.205255
24.35,0.205269
24.36,0.205283
24.37,0.205297
24.38,0.205313
24.39,0.205328
24.4,0.205345
24.41,0.205362
24.42,0.20538
24.43,0.205398
24.44,0.205417
24.45,0.205438
24.46,0.205459
24.47,0.205481
24.48,0.205503
24.49,0.205527
24.5,0.205552
24.51,0.205579
24.52,0.205606
24.53,0.205635
24.54,0.205665
24.55,0.205697
24.56,0.20573
24.57,0.205765
24.58,0.205802
24.59,0.20584
24.6,0.205881
24.61,0.205924
24.62,0.20597
24.63,0.206017
24.64,0.206068
24.65,0.206122
24.66,0.206178
24.67,0.206239
24.68,0.206303
24.69,0.20637
24.7,0.206443
24.71,0.20652
24.72,0.206601
24.73,0.206689
24.74,0.206782
24.75,0.206882
24.76,0.20699
24.77,0.207105
24.78,0.207228
24.79,0.207361
24.8,0.207504
24.81,0.207658
24.82,0.207825
24.83,0.208005
24.84,0.2082
24.85,0.208412
24.86,0.208642
24.87,0.208893
24.88,0.209165
24.89,0.209463
24.9,0.209788
24.91,0.210143
24.92,0.210531
24.93,0.210957
24.94,0.211422
24.95,0.211932
24.96,0.21249
24.97,0.2131
24.98,0.213764
24.99,0.214486
25,0.215266
25.01,0.216105
25.02,0.216998
25.03,0.217938
25.04,0.218915
25.05,0.219908
25.06,0.220894
25.07,0.221842
25.08,0.222712
25.09,0.223466
25.1,0.22406
25.11,0.224459
25.12,0.224636
25.13,0.22458
25.14,0.224294
25.15,0.223797
25.16,0.223121
25.17,0.222306
25.18,0.221394
25.19,0.220424
25.2,0.21943
25.21,0.218442
25.22,0.217482
25.23,0.216562
25.24,0.215695
25.25,0.214884
25.26,0.214132
25.27,0.213438
25.28,0.2128
25.29,0.212216
25.3,0.211682
25.31,0.211194
25.32,0.210748
25.33,0.210341
25.34,0.209968
25.35,0.209628
25.36,0.209317
25.37,0.209031
25.38,0.20877
25.39,0.208529
25.4,0.208308
25.41,0.208105
25.42,0.207917
25.43,0.207743
25.44,0.207583
25.45,0.207434
25.46,0.207296
25.47,0.207168
25.48,0.207048
25.49,0.206937
25.5,0.206834
25.51,0.206737
25.52,0.206646
25.53,0.206561
25.54,0.206482
25.55,0.206407
25.56,0.206337
25.57,0.206271
25.58,0.206209
25.59,0.206151
25.6,0.206096
25.61,0.206043
25.62,0.205994
25.63,0.205947
25.64,0.205903
25.65,0.205861
25.66,0.205822
25.67,0.205784
25.68,0.205748
25.69,0.205714
25.7,0.205681
25.71,0.20565
25.72,0.205621
25.73,0.205593
25.74,0.205566
25.75,0.20554
25.76,0.205516
25.77,0.205492
25.78,0.20547
25.79,0.205448
25.8,0.205428
25.81,0.205408
25.82,0.205389
25.83,0.205371
25.84,0.205354
25.85,0.205337
25.86,0.205321
25.87,0.205305
25.88,0.20529
25.89,0.205276
25.9,0.205262
25.91,0.205249
25.92,0.205236
25.93,0.205224
25.94,0.205212
25.95,0.2052
25.96,0.205189
25.97,0.205178
25.98,0.205168
25.99,0.205158
26,0.205148
26.01,0.205139
26.02,0.20513
26.03,0.205121
26.04,0.205112
26.05,0.205104
26.06,0.205096
26.07,0.205088
26.08,0.205081
26.09,0.205073
26.1,0.205066
26.11,0.20506
26.12,0.205053
26.13,0.205046
26.14,0.20504
26.15,0.205034
26.16,0.205028
26.17,0.205022
26.18,0.205017
26.19,0.205011
26.2,0.205006
26.21,0.205001
26.22,0.204996
26.23,0.204991
26.24,0.204986
26.25,0.204981
26.26,0.204977
26.27,0.204973
26.28,0.204968
26.29,0.204964
26.3,0.20496
26.31,0.204956
26.32,0.204952
26.33,0.204948
26.34,0.204945
26.35,0.204941
26.36,0.204938
26.37,0.204934
26.38,0.204931
26.39,0.204927
26.4,0.204924
26.41,0.204921
26.42,0.204918
26.43,0.204915
26.44,0.204912
26.45,0.204909
26.46,0.204907
26.47,0.204904
26.48,0.204901
26.49,0.204898
26.5,0.204896
26.51,0.204893
26.52,0.204891
26.53,0.204889
26.54,0.204886
26.55,0.204884
26.56,0.204882
26.57,0.204879
26.58,0.204877
26.59,0.204875
26.6,0.204873
26.61,0.204871
26.62,0.204869
26.63,0.204867
26.64,0.204865
26.65,0.204863
26.66,0.204861
26.67,0.20486
26.68,0.204858
26.69,0.204856
26.7,0.204854
26.71,0.204853
26.72,0.204851
26.73,0.204849
26.74,0.204848
26.75,0.204846
26.76,0.204845
26.77,0.204843
26.78,0.204842
26.79,0.20484
26.8,0.204839
26.81,0.204838
26.82,0.204836
26.83,0.204835
26.84,0.204834
26.85,0.204832
26.86,0.204831
26.87,0.20483
26.88,0.204828
26.89,0.204827
26.9,0.204826
26.91,0.204825
26.92,0.204824
26.93,0.204823
26.94,0.204821
26.95,0.20482
26.96,0.204819
26.97,0.204818
26.98,0.204817
26.99,0.204816