Folder: superconductor_data/pb/bose_2007/18nm/xrd

Note: pb/bose_2007/18nm/xrd/summary.md
## XRD Analysis

#### Curve 1 (001 Peak)
**Type**: Lorentzian\
**amplitude** 16.6\
**center**: 36.32\
**Ïƒ**: 0.447




## S<sup>2</sup>

**Amplitude of (111) Peak:** 99.27\
**E<sub>110</sub>:** 0.11657766548289447


Calculated by using S<sup>2</sup> and E<sub>110</sub> value of the 40nm film.\
**S<sup>2</sup>:** 0.0301





**T<sub>C</sub>:**  7.2 K


## Reference

XRD from Figure 4.3 of Bose\
T<sub>C</sub> from Table 4.5 of Bose



S. Bose, Size Effects in Nanostructured Superconductors, PhD Thesis, 2007.
https://www.tifr.res.in/~superconductivity/pdfs/sangitabose.pdf

Note: README.md
[![DOI](https://zenodo.org/badge/DOI/10.5281/zenodo.3904782.svg)](https://doi.org/10.5281/zenodo.3904782)


Data Extraction Repository for
R.A Makin and S.M. Durbin, “Structural motifs: A potential pathway to superconductivity at standard temperature and pressure.”


### References


## YBCO

[1] C. Camerlingo, I. Delfino, and M. Lepore, Supercond. Sci. Technol. 15, 1606 (2002).\
    (https://doi.org/10.1088%2F0953-2048%2F15%2F11%2F321)


## Pb

[1] S. Bose, Size Effects in Nanostructured Superconductors, PhD Thesis, 2007.
https://www.tifr.res.in/~superconductivity/pdfs/sangitabose.pdf

## Nb

[1] S. Bose, Size Effects in Nanostructured Superconductors, PhD Thesis, 2007.
https://www.tifr.res.in/~superconductivity/pdfs/sangitabose.pdf

[2] C. T. Wu, Thin Solid Films 64, 103 (1979).\
https://doi.org/10.1016/0040-6090(79)90549-2

[3] G. Wu, A.-M. Valente, H. L. Phillips, H. Wang, A. T. Wu, T. J. Renk, and P. Provencio, Thin Solid Films 489, 56 (2005).\
https://doi.org/10.1016/j.tsf.2005.04.099

## Nb3Sn

[1] K. Kwasnitza, A. V. Narlikar, H. U. Nissen, and D. Salathé, Cryogenics 20, 715 (1980).\
https://doi.org/10.1016/0011-2275(80)90026-0

[2]G. Rosaz, S. Calatroni, F. Leaux, F. Motschmann, Z. Mydlarz, M. Taborelli, and W. Vollenberg, Development of Nb3Sn Coatings by Magnetron Sputtering for SRF Cavities, Proceedings of the 17th International Conference on RF Superconductivity SRF2015, 4 pages (2015). https://doi.org/10.18429/JACOW-SRF2015-TUPB051


## Nb3Ge

[1] M. Akinaga and T. Ueno, Applied Surface Science 33–34, 1269 (1988). \
https://doi.org/10.1016/0169-4332(88)90444-8

[2] S. Mase, T. Fukami, and S. Takano, Phase Transitions 8, 187 (1987).\
https://doi.org/10.1080/01411598708209375


## Nb3Al

[1] P. Li, W. Zhang, W. Lin, G. Wang, X. Pan, Z. Yu, X. Yang, B. Sun, G. Yan, Y. Zhang, C. H. Cheng, Y. Feng, and Y. Zhao, Journal of Alloys and Compounds 742, 130 (2018).\
https://doi.org/10.1016/j.jallcom.2018.01.248


## MgB2

[1] S. K. Chen, A. Serquis, G. Serrano, K. A. Yates, M. G. Blamire, D. Guthrie, J. Cooper, H. Wang, S. Margadonna, and J. L. MacManus‐Driscoll, Advanced Functional Materials 18, 113 (2008).\
(https://doi.org/10.1002/adfm.200700254)

[2] J. Nagamatsu, N. Nakagawa, T. Muranaka, Y. Zenitani, and J. Akimitsu, Nature 410, 63 (2001).\
 (https://doi.org/10.1038/35065039)

[3] Y. Wang, C. Zhuang, X. Sun, X. Huang, Q. Fu, Z. Liao, D. Yu, and Q. Feng, Supercond. Sci. Technol. 22, 125015 (2009).\
(https://doi.org/10.1088%2F0953-2048%2F22%2F12%2F125015)

[4] K. A. Yates, Burnell, N. A. Stelmashenko, D.-J. Kang, H. N. Lee, B. Oh, and M. G. Blamire, Phys. Rev. B 68, 220512 (2003).\
(https://doi.org/10.1103/PhysRevB.68.220512)

[5] K. A. Yates, G. Burnell, Z. Lockman, A. Kursumovic, J. L. MacManus Driscoll, and M. G. Blamire, Journal of Physics and Chemistry of Solids 67, 333 (2006).\
(https://doi.org/10.1016/j.jpcs.2005.10.114)

[6] C. Terzioglu, A. Varilci, and I. Belenli, Investigation of Effect of Annealing Temperature on Mechanical Prop

File: curve_1_fit.dat
35.0,0.463279
35.01,0.470188
35.02,0.477251
35.03,0.484473
35.04,0.491859
35.05,0.499413
35.06,0.507141
35.07,0.515047
35.08,0.523138
35.09,0.531418
35.1,0.539895
35.11,0.548574
35.12,0.557461
35.13,0.566563
35.14,0.575888
35.15,0.585441
35.16,0.595232
35.17,0.605266
35.18,0.615554
35.19,0.626102
35.2,0.636921
35.21,0.648018
35.22,0.659404
35.23,0.671088
35.24,0.683081
35.25,0.695394
35.26,0.708037
35.27,0.721024
35.28,0.734365
35.29,0.748074
35.3,0.762164
35.31,0.77665
35.32,0.791545
35.33,0.806866
35.34,0.822627
35.35,0.838847
35.36,0.855543
35.37,0.872732
35.38,0.890435
35.39,0.908672
35.4,0.927463
35.41,0.946831
35.42,0.9668
35.43,0.987393
35.44,1.00864
35.45,1.03056
35.46,1.05319
35.47,1.07655
35.48,1.10068
35.49,1.12561
35.5,1.15138
35.51,1.17802
35.52,1.20557
35.53,1.23407
35.54,1.26356
35.55,1.2941
35.56,1.32572
35.57,1.35848
35.58,1.39243
35.59,1.42763
35.6,1.46414
35.61,1.50202
35.62,1.54133
35.63,1.58216
35.64,1.62457
35.65,1.66864
35.66,1.71446
35.67,1.76212
35.68,1.81171
35.69,1.86333
35.7,1.91709
35.71,1.9731
35.72,2.03149
35.73,2.09238
35.74,2.15592
35.75,2.22223
35.76,2.29149
35.77,2.36385
35.78,2.4395
35.79,2.51861
35.8,2.60139
35.81,2.68804
35.82,2.77881
35.83,2.87392
35.84,2.97363
35.85,3.07823
35.86,3.18799
35.87,3.30323
35.88,3.42428
35.89,3.55148
35.9,3.68523
35.91,3.82589
35.92,3.97391
35.93,4.12971
35.94,4.29377
35.95,4.46659
35.96,4.64867
35.97,4.84055
35.98,5.04281
35.99,5.25603
36,5.48081
36.01,5.71777
36.02,5.96752
36.03,6.2307
36.04,6.50791
36.05,6.79975
36.06,7.10678
36.07,7.42948
36.08,7.76827
36.09,8.12347
36.1,8.49524
36.11,8.88356
36.12,9.2882
36.13,9.70863
36.14,10.144
36.15,10.5931
36.16,11.0542
36.17,11.5251
36.18,12.0029
36.19,12.4844
36.2,12.9654
36.21,13.4411
36.22,13.9062
36.23,14.3546
36.24,14.78
36.25,15.1756
36.26,15.5343
36.27,15.8496
36.28,16.1149
36.29,16.3246
36.3,16.474
36.31,16.5597
36.32,16.5796
36.33,16.5333
36.34,16.4218
36.35,16.2477
36.36,16.0151
36.37,15.7291
36.38,15.3957
36.39,15.0214
36.4,14.6131
36.41,14.1776
36.42,13.7218
36.43,13.2517
36.44,12.7733
36.45,12.2916
36.46,11.8112
36.47,11.3357
36.48,10.8684
36.49,10.4119
36.5,9.96814
36.51,9.53861
36.52,9.12441
36.53,8.72626
36.54,8.34454
36.55,7.97941
36.56,7.6308
36.57,7.29849
36.58,6.98211
36.59,6.68122
36.6,6.3953
36.61,6.12378
36.62,5.86604
36.63,5.62148
36.64,5.38947
36.65,5.16939
36.66,4.96063
36.67,4.76259
36.68,4.57469
36.69,4.39638
36.7,4.22713
36.71,4.06643
36.72,3.91379
36.73,3.76877
36.74,3.63092
36.75,3.49984
36.76,3.37514
36.77,3.25645
36.78,3.14344
36.79,3.03579
36.8,2.93318
36.81,2.83534
36.82,2.742
36.83,2.6529
36.84,2.56782
36.85,2.48654
36.86,2.40883
36.87,2.33453
36.88,2.26343
36.89,2.19536
36.9,2.13018
36.91,2.06772
36.92,2.00784
36.93,1.95042
36.94,1.89532
36.95,1.84243
36.96,1.79163
36.97,1.74283
36.98,1.69592
36.99,1.65081
37,1.60741
37.01,1.56564
37.02,1.52543
37.03,1.4867
37.04,1.44937
37.05,1.4134
37.06,1.3787
37.07,1.34523
37.08,1.31294
37.09,1.28175
37.1,1.25164
37.11,1.22255
37.12,1.19443
37.13,1.16725
37.14,1.14097
37.15,1.11554
37.16,1.09093
37.17,1.06711
37.18,1.04405
37.19,1.02171
37.2,1.00006
37.21,0.979079
37.22,0.958739
37.23,0.939013
37.24,0.919879
37.25,0.901312
37.26,0.883291
37.27,0.865796
37.28,0.848806
37.29,0.832303
37.3,0.816269
37.31,0.800685
37.32,0.785537
37.33,0.770807
37.34,0.756481
37.35,0.742545
37.36,0.728985
37.37,0.715787
37.38,0.70294
37.39,0.69043
37.4,0.678246
37.41,0.666378
37.42,0.654814
37.43,0.643545
37.44,0.63256
37.45,0.621851
37.46,0.611408
37.47,0.601223
37.48,0.591287
37.49,0.581592
37.5,0.572131
37.51,0.562896
37.52,0.553881
37.53,0.545078
37.54,0.53648
37.55,0.528083
37.56,0.519879
37.57,0.511863
37.58,0.504029
37.59,0.496371
37.6,0.488885
37.61,0.481565
37.62,0.474407
37.63,0.467406
37.64,0.460557
37.65,0.453857
37.66,0.4473
37.67,0.440883
37.68,0.434601
37.69,0.428452
37.7,0.422432
37.71,0.416536
37.72,0.410762
37.73,0.405106
37.74,0.399565
37.75,0.394136
37.76,0.388816
37.77,0.383603
37.78,0.378492
37.79,0.373483
37.8,0.368571
37.81,0.363755
37.82,0.359032
37.83,0.3544
37.84,0.349856
37.85,0.345398
37.86,0.341025
37.87,0.336733
37.88,0.332522
37.89,0.328388
37.9,0.324331
37.91,0.320348
37.92,0.316437
37.93,0.312597
37.94,0.308826
37.95,0.305122
37.96,0.301484
37.97,0.297911
37.98,0.2944
37.99,0.290951
37.999,0.287898

File: curve_total_fit.dat
35.0,359.063
35.01,359.07
35.02,359.077
35.03,359.084
35.04,359.092
35.05,359.099
35.06,359.107
35.07,359.115
35.08,359.123
35.09,359.131
35.1,359.14
35.11,359.149
35.12,359.157
35.13,359.167
35.14,359.176
35.15,359.185
35.16,359.195
35.17,359.205
35.18,359.216
35.19,359.226
35.2,359.237
35.21,359.248
35.22,359.259
35.23,359.271
35.24,359.283
35.25,359.295
35.26,359.308
35.27,359.321
35.28,359.334
35.29,359.348
35.3,359.362
35.31,359.377
35.32,359.392
35.33,359.407
35.34,359.423
35.35,359.439
35.36,359.456
35.37,359.473
35.38,359.49
35.39,359.509
35.4,359.527
35.41,359.547
35.42,359.567
35.43,359.587
35.44,359.609
35.45,359.631
35.46,359.653
35.47,359.677
35.48,359.701
35.49,359.726
35.5,359.751
35.51,359.778
35.52,359.806
35.53,359.834
35.54,359.864
35.55,359.894
35.56,359.926
35.57,359.958
35.58,359.992
35.59,360.028
35.6,360.064
35.61,360.102
35.62,360.141
35.63,360.182
35.64,360.225
35.65,360.269
35.66,360.314
35.67,360.362
35.68,360.412
35.69,360.463
35.7,360.517
35.71,360.573
35.72,360.631
35.73,360.692
35.74,360.756
35.75,360.822
35.76,360.891
35.77,360.964
35.78,361.039
35.79,361.119
35.8,361.201
35.81,361.288
35.82,361.379
35.83,361.474
35.84,361.574
35.85,361.678
35.86,361.788
35.87,361.903
35.88,362.024
35.89,362.151
35.9,362.285
35.91,362.426
35.92,362.574
35.93,362.73
35.94,362.894
35.95,363.067
35.96,363.249
35.97,363.441
35.98,363.643
35.99,363.856
36,364.081
36.01,364.318
36.02,364.568
36.03,364.831
36.04,365.108
36.05,365.4
36.06,365.707
36.07,366.029
36.08,366.368
36.09,366.723
36.1,367.095
36.11,367.484
36.12,367.888
36.13,368.309
36.14,368.744
36.15,369.193
36.16,369.654
36.17,370.125
36.18,370.603
36.19,371.084
36.2,371.565
36.21,372.041
36.22,372.506
36.23,372.955
36.24,373.38
36.25,373.776
36.26,374.134
36.27,374.45
36.28,374.715
36.29,374.925
36.3,375.074
36.31,375.16
36.32,375.18
36.33,375.133
36.34,375.022
36.35,374.848
36.36,374.615
36.37,374.329
36.38,373.996
36.39,373.621
36.4,373.213
36.41,372.778
36.42,372.322
36.43,371.852
36.44,371.373
36.45,370.892
36.46,370.411
36.47,369.936
36.48,369.468
36.49,369.012
36.5,368.568
36.51,368.139
36.52,367.724
36.53,367.326
36.54,366.945
36.55,366.579
36.56,366.231
36.57,365.898
36.58,365.582
36.59,365.281
36.6,364.995
36.61,364.724
36.62,364.466
36.63,364.221
36.64,363.989
36.65,363.769
36.66,363.561
36.67,363.363
36.68,363.175
36.69,362.996
36.7,362.827
36.71,362.666
36.72,362.514
36.73,362.369
36.74,362.231
36.75,362.1
36.76,361.975
36.77,361.856
36.78,361.743
36.79,361.636
36.8,361.533
36.81,361.435
36.82,361.342
36.83,361.253
36.84,361.168
36.85,361.087
36.86,361.009
36.87,360.935
36.88,360.863
36.89,360.795
36.9,360.73
36.91,360.668
36.92,360.608
36.93,360.55
36.94,360.495
36.95,360.442
36.96,360.392
36.97,360.343
36.98,360.296
36.99,360.251
37,360.207
37.01,360.166
37.02,360.125
37.03,360.087
37.04,360.049
37.05,360.013
37.06,359.979
37.07,359.945
37.08,359.913
37.09,359.882
37.1,359.852
37.11,359.823
37.12,359.794
37.13,359.767
37.14,359.741
37.15,359.716
37.16,359.691
37.17,359.667
37.18,359.644
37.19,359.622
37.2,359.6
37.21,359.579
37.22,359.559
37.23,359.539
37.24,359.52
37.25,359.501
37.26,359.483
37.27,359.466
37.28,359.449
37.29,359.432
37.3,359.416
37.31,359.401
37.32,359.386
37.33,359.371
37.34,359.356
37.35,359.343
37.36,359.329
37.37,359.316
37.38,359.303
37.39,359.29
37.4,359.278
37.41,359.266
37.42,359.255
37.43,359.244
37.44,359.233
37.45,359.222
37.46,359.211
37.47,359.201
37.48,359.191
37.49,359.182
37.5,359.172
37.51,359.163
37.52,359.154
37.53,359.145
37.54,359.136
37.55,359.128
37.56,359.12
37.57,359.112
37.58,359.104
37.59,359.096
37.6,359.089
37.61,359.082
37.62,359.074
37.63,359.067
37.64,359.061
37.65,359.054
37.66,359.047
37.67,359.041
37.68,359.035
37.69,359.028
37.7,359.022
37.71,359.017
37.72,359.011
37.73,359.005
37.74,359
37.75,358.994
37.76,358.989
37.77,358.984
37.78,358.978
37.79,358.973
37.8,358.969
37.81,358.964
37.82,358.959
37.83,358.954
37.84,358.95
37.85,358.945
37.86,358.941
37.87,358.937
37.88,358.933
37.89,358.928
37.9,358.924
37.91,358.92
37.92,358.916
37.93,358.913
37.94,358.909
37.95,358.905
37.96,358.901
37.97,358.898
37.98,358.894
37.99,358.891
37.999,358.888