Folder: superconductor_data/mgb2/chen_2008/mg_1.5/xrd

Note: README.md
[![DOI](https://zenodo.org/badge/DOI/10.5281/zenodo.3904782.svg)](https://doi.org/10.5281/zenodo.3904782)


Data Extraction Repository for
R.A Makin and S.M. Durbin, “Structural motifs: A potential pathway to superconductivity at standard temperature and pressure.”


### References


## YBCO

[1] C. Camerlingo, I. Delfino, and M. Lepore, Supercond. Sci. Technol. 15, 1606 (2002).\
    (https://doi.org/10.1088%2F0953-2048%2F15%2F11%2F321)


## Pb

[1] S. Bose, Size Effects in Nanostructured Superconductors, PhD Thesis, 2007.
https://www.tifr.res.in/~superconductivity/pdfs/sangitabose.pdf

## Nb

[1] S. Bose, Size Effects in Nanostructured Superconductors, PhD Thesis, 2007.
https://www.tifr.res.in/~superconductivity/pdfs/sangitabose.pdf

[2] C. T. Wu, Thin Solid Films 64, 103 (1979).\
https://doi.org/10.1016/0040-6090(79)90549-2

[3] G. Wu, A.-M. Valente, H. L. Phillips, H. Wang, A. T. Wu, T. J. Renk, and P. Provencio, Thin Solid Films 489, 56 (2005).\
https://doi.org/10.1016/j.tsf.2005.04.099

## Nb3Sn

[1] K. Kwasnitza, A. V. Narlikar, H. U. Nissen, and D. Salathé, Cryogenics 20, 715 (1980).\
https://doi.org/10.1016/0011-2275(80)90026-0

[2]G. Rosaz, S. Calatroni, F. Leaux, F. Motschmann, Z. Mydlarz, M. Taborelli, and W. Vollenberg, Development of Nb3Sn Coatings by Magnetron Sputtering for SRF Cavities, Proceedings of the 17th International Conference on RF Superconductivity SRF2015, 4 pages (2015). https://doi.org/10.18429/JACOW-SRF2015-TUPB051


## Nb3Ge

[1] M. Akinaga and T. Ueno, Applied Surface Science 33–34, 1269 (1988). \
https://doi.org/10.1016/0169-4332(88)90444-8

[2] S. Mase, T. Fukami, and S. Takano, Phase Transitions 8, 187 (1987).\
https://doi.org/10.1080/01411598708209375


## Nb3Al

[1] P. Li, W. Zhang, W. Lin, G. Wang, X. Pan, Z. Yu, X. Yang, B. Sun, G. Yan, Y. Zhang, C. H. Cheng, Y. Feng, and Y. Zhao, Journal of Alloys and Compounds 742, 130 (2018).\
https://doi.org/10.1016/j.jallcom.2018.01.248


## MgB2

[1] S. K. Chen, A. Serquis, G. Serrano, K. A. Yates, M. G. Blamire, D. Guthrie, J. Cooper, H. Wang, S. Margadonna, and J. L. MacManus‐Driscoll, Advanced Functional Materials 18, 113 (2008).\
(https://doi.org/10.1002/adfm.200700254)

[2] J. Nagamatsu, N. Nakagawa, T. Muranaka, Y. Zenitani, and J. Akimitsu, Nature 410, 63 (2001).\
 (https://doi.org/10.1038/35065039)

[3] Y. Wang, C. Zhuang, X. Sun, X. Huang, Q. Fu, Z. Liao, D. Yu, and Q. Feng, Supercond. Sci. Technol. 22, 125015 (2009).\
(https://doi.org/10.1088%2F0953-2048%2F22%2F12%2F125015)

[4] K. A. Yates, Burnell, N. A. Stelmashenko, D.-J. Kang, H. N. Lee, B. Oh, and M. G. Blamire, Phys. Rev. B 68, 220512 (2003).\
(https://doi.org/10.1103/PhysRevB.68.220512)

[5] K. A. Yates, G. Burnell, Z. Lockman, A. Kursumovic, J. L. MacManus Driscoll, and M. G. Blamire, Journal of Physics and Chemistry of Solids 67, 333 (2006).\
(https://doi.org/10.1016/j.jpcs.2005.10.114)

[6] C. Terzioglu, A. Varilci, and I. Belenli, Investigation of Effect of Annealing Temperature on Mechanical Prop

File: curve_1_fit.dat
24.0,0.000187835
24.01,0.000191014
24.02,0.000194274
24.03,0.000197617
24.04,0.000201048
24.05,0.000204568
24.06,0.000208182
24.07,0.000211891
24.08,0.000215701
24.09,0.000219613
24.1,0.000223633
24.11,0.000227764
24.12,0.00023201
24.13,0.000236375
24.14,0.000240864
24.15,0.000245482
24.16,0.000250233
24.17,0.000255124
24.18,0.000260158
24.19,0.000265342
24.2,0.000270682
24.21,0.000276184
24.22,0.000281855
24.23,0.000287702
24.24,0.000293731
24.25,0.000299952
24.26,0.000306371
24.27,0.000312997
24.28,0.000319839
24.29,0.000326908
24.3,0.000334212
24.31,0.000341762
24.32,0.000349569
24.33,0.000357646
24.34,0.000366004
24.35,0.000374658
24.36,0.000383619
24.37,0.000392904
24.38,0.000402529
24.39,0.000412509
24.4,0.000422862
24.41,0.000433607
24.42,0.000444765
24.43,0.000456355
24.44,0.000468401
24.45,0.000480927
24.46,0.000493959
24.47,0.000507523
24.48,0.000521648
24.49,0.000536367
24.5,0.000551712
24.51,0.00056772
24.52,0.000584428
24.53,0.000601877
24.54,0.000620112
24.55,0.000639179
24.56,0.000659131
24.57,0.000680022
24.58,0.00070191
24.59,0.00072486
24.6,0.000748941
24.61,0.000774228
24.62,0.0008008
24.63,0.000828746
24.64,0.00085816
24.65,0.000889146
24.66,0.000921816
24.67,0.000956292
24.68,0.000992707
24.69,0.00103121
24.7,0.00107195
24.71,0.00111512
24.72,0.00116089
24.73,0.00120949
24.74,0.00126114
24.75,0.0013161
24.76,0.00137464
24.77,0.00143709
24.78,0.00150379
24.79,0.00157511
24.8,0.00165149
24.81,0.0017334
24.82,0.00182137
24.83,0.00191598
24.84,0.00201791
24.85,0.00212789
24.86,0.00224676
24.87,0.00237546
24.88,0.00251505
24.89,0.00266672
24.9,0.00283183
24.91,0.00301192
24.92,0.00320874
24.93,0.00342426
24.94,0.00366074
24.95,0.00392075
24.96,0.0042072
24.97,0.00452342
24.98,0.00487316
24.99,0.00526069
25,0.00569078
25.01,0.0061688
25.02,0.00670066
25.03,0.00729279
25.04,0.00795201
25.05,0.00868532
25.06,0.00949947
25.07,0.0104003
25.08,0.0113918
25.09,0.0124744
25.1,0.0136434
25.11,0.0148861
25.12,0.0161792
25.13,0.0174861
25.14,0.0187551
25.15,0.0199207
25.16,0.0209078
25.17,0.0216408
25.18,0.0220563
25.19,0.0221151
25.2,0.0218116
25.21,0.0211747
25.22,0.0202614
25.23,0.0191448
25.24,0.0179013
25.25,0.0166003
25.26,0.015298
25.27,0.0140359
25.28,0.0128414
25.29,0.0117301
25.3,0.0107092
25.31,0.00977953
25.32,0.00893807
25.33,0.00817946
25.34,0.00749717
25.35,0.00688422
25.36,0.00633371
25.37,0.00583904
25.38,0.00539414
25.39,0.00499347
25.4,0.00463206
25.41,0.0043055
25.42,0.00400985
25.43,0.00374167
25.44,0.00349792
25.45,0.00327592
25.46,0.00307331
25.47,0.00288804
25.48,0.00271829
25.49,0.00256245
25.5,0.00241912
25.51,0.00228704
25.52,0.00216512
25.53,0.00205237
25.54,0.00194794
25.55,0.00185105
25.56,0.00176101
25.57,0.00167721
25.58,0.00159911
25.59,0.00152621
25.6,0.00145806
25.61,0.00139429
25.62,0.00133452
25.63,0.00127844
25.64,0.00122576
25.65,0.00117621
25.66,0.00112955
25.67,0.00108556
25.68,0.00104406
25.69,0.00100486
25.7,0.000967787
25.71,0.000932702
25.72,0.000899465
25.73,0.00086795
25.74,0.000838042
25.75,0.000809635
25.76,0.00078263
25.77,0.00075694
25.78,0.000732479
25.79,0.000709173
25.8,0.00068695
25.81,0.000665745
25.82,0.000645498
25.83,0.000626152
25.84,0.000607654
25.85,0.000589957
25.86,0.000573016
25.87,0.000556787
25.88,0.000541233
25.89,0.000526316
25.9,0.000512003
25.91,0.000498262
25.92,0.000485063
25.93,0.000472377
25.94,0.000460179
25.95,0.000448445
25.96,0.00043715
25.97,0.000426275
25.98,0.000415797
25.99,0.000405699
26,0.000395962
26.01,0.00038657
26.02,0.000377506
26.03,0.000368755
26.04,0.000360303
26.05,0.000352137
26.06,0.000344245
26.07,0.000336613
26.08,0.000329231
26.09,0.000322088
26.1,0.000315174
26.11,0.000308479
26.12,0.000301994
26.13,0.000295711
26.14,0.000289621
26.15,0.000283716
26.16,0.000277989
26.17,0.000272434
26.18,0.000267042
26.19,0.000261809
26.2,0.000256727
26.21,0.000251791
26.22,0.000246996
26.23,0.000242335
26.24,0.000237805
26.25,0.000233401
26.26,0.000229117
26.27,0.00022495
26.28,0.000220895
26.29,0.000216948
26.3,0.000213106
26.31,0.000209364
26.32,0.00020572
26.33,0.00020217
26.34,0.000198711
26.35,0.00019534
26.36,0.000192053
26.37,0.000188849
26.38,0.000185724
26.39,0.000182675
26.4,0.000179701
26.41,0.000176798
26.42,0.000173966
26.43,0.0001712
26.44,0.0001685
26.45,0.000165863
26.46,0.000163287
26.47,0.000160771
26.48,0.000158312
26.49,0.000155909
26.5,0.000153561
26.51,0.000151265
26.52,0.000149019
26.53,0.000146824
26.54,0.000144676
26.55,0.000142575
26.56,0.00014052
26.57,0.000138508
26.58,0.00013654
26.59,0.000134612
26.6,0.000132726

File: curve_total_fit.dat
24.0,1.20389
24.01,1.20389
24.02,1.20389
24.03,1.2039
24.04,1.2039
24.05,1.2039
24.06,1.20391
24.07,1.20391
24.08,1.20392
24.09,1.20392
24.1,1.20392
24.11,1.20393
24.12,1.20393
24.13,1.20394
24.14,1.20394
24.15,1.20395
24.16,1.20395
24.17,1.20396
24.18,1.20396
24.19,1.20397
24.2,1.20397
24.21,1.20398
24.22,1.20398
24.23,1.20399
24.24,1.20399
24.25,1.204
24.26,1.20401
24.27,1.20401
24.28,1.20402
24.29,1.20403
24.3,1.20403
24.31,1.20404
24.32,1.20405
24.33,1.20406
24.34,1.20407
24.35,1.20407
24.36,1.20408
24.37,1.20409
24.38,1.2041
24.39,1.20411
24.4,1.20412
24.41,1.20413
24.42,1.20414
24.43,1.20416
24.44,1.20417
24.45,1.20418
24.46,1.20419
24.47,1.20421
24.48,1.20422
24.49,1.20424
24.5,1.20425
24.51,1.20427
24.52,1.20428
24.53,1.2043
24.54,1.20432
24.55,1.20434
24.56,1.20436
24.57,1.20438
24.58,1.2044
24.59,1.20442
24.6,1.20445
24.61,1.20447
24.62,1.2045
24.63,1.20453
24.64,1.20456
24.65,1.20459
24.66,1.20462
24.67,1.20466
24.68,1.20469
24.69,1.20473
24.7,1.20477
24.71,1.20482
24.72,1.20486
24.73,1.20491
24.74,1.20496
24.75,1.20502
24.76,1.20507
24.77,1.20514
24.78,1.2052
24.79,1.20528
24.8,1.20535
24.81,1.20543
24.82,1.20552
24.83,1.20562
24.84,1.20572
24.85,1.20583
24.86,1.20595
24.87,1.20608
24.88,1.20622
24.89,1.20637
24.9,1.20653
24.91,1.20671
24.92,1.20691
24.93,1.20712
24.94,1.20736
24.95,1.20762
24.96,1.20791
24.97,1.20822
24.98,1.20857
24.99,1.20896
25,1.20939
25.01,1.20987
25.02,1.2104
25.03,1.21099
25.04,1.21165
25.05,1.21239
25.06,1.2132
25.07,1.2141
25.08,1.21509
25.09,1.21617
25.1,1.21734
25.11,1.21859
25.12,1.21988
25.13,1.22119
25.14,1.22246
25.15,1.22362
25.16,1.22461
25.17,1.22534
25.18,1.22576
25.19,1.22582
25.2,1.22551
25.21,1.22487
25.22,1.22396
25.23,1.22284
25.24,1.2216
25.25,1.2203
25.26,1.219
25.27,1.21774
25.28,1.21654
25.29,1.21543
25.3,1.21441
25.31,1.21348
25.32,1.21264
25.33,1.21188
25.34,1.2112
25.35,1.21058
25.36,1.21003
25.37,1.20954
25.38,1.20909
25.39,1.20869
25.4,1.20833
25.41,1.20801
25.42,1.20771
25.43,1.20744
25.44,1.2072
25.45,1.20698
25.46,1.20677
25.47,1.20659
25.48,1.20642
25.49,1.20626
25.5,1.20612
25.51,1.20599
25.52,1.20587
25.53,1.20575
25.54,1.20565
25.55,1.20555
25.56,1.20546
25.57,1.20538
25.58,1.2053
25.59,1.20523
25.6,1.20516
25.61,1.20509
25.62,1.20503
25.63,1.20498
25.64,1.20493
25.65,1.20488
25.66,1.20483
25.67,1.20479
25.68,1.20474
25.69,1.2047
25.7,1.20467
25.71,1.20463
25.72,1.2046
25.73,1.20457
25.74,1.20454
25.75,1.20451
25.76,1.20448
25.77,1.20446
25.78,1.20443
25.79,1.20441
25.8,1.20439
25.81,1.20437
25.82,1.20435
25.83,1.20433
25.84,1.20431
25.85,1.20429
25.86,1.20427
25.87,1.20426
25.88,1.20424
25.89,1.20423
25.9,1.20421
25.91,1.2042
25.92,1.20419
25.93,1.20417
25.94,1.20416
25.95,1.20415
25.96,1.20414
25.97,1.20413
25.98,1.20412
25.99,1.20411
26,1.2041
26.01,1.20409
26.02,1.20408
26.03,1.20407
26.04,1.20406
26.05,1.20405
26.06,1.20404
26.07,1.20404
26.08,1.20403
26.09,1.20402
26.1,1.20402
26.11,1.20401
26.12,1.204
26.13,1.204
26.14,1.20399
26.15,1.20398
26.16,1.20398
26.17,1.20397
26.18,1.20397
26.19,1.20396
26.2,1.20396
26.21,1.20395
26.22,1.20395
26.23,1.20394
26.24,1.20394
26.25,1.20393
26.26,1.20393
26.27,1.20392
26.28,1.20392
26.29,1.20392
26.3,1.20391
26.31,1.20391
26.32,1.20391
26.33,1.2039
26.34,1.2039
26.35,1.2039
26.36,1.20389
26.37,1.20389
26.38,1.20389
26.39,1.20388
26.4,1.20388
26.41,1.20388
26.42,1.20387
26.43,1.20387
26.44,1.20387
26.45,1.20387
26.46,1.20386
26.47,1.20386
26.48,1.20386
26.49,1.20386
26.5,1.20385
26.51,1.20385
26.52,1.20385
26.53,1.20385
26.54,1.20384
26.55,1.20384
26.56,1.20384
26.57,1.20384
26.58,1.20384
26.59,1.20383
26.6,1.20383

File: xrd.csv
24.2608, 1.20331
24.5449, 1.20289
24.829, 1.20487
25.0184, 1.21126
25.1605, 1.22445
25.322, 1.21374
25.3973, 1.20643
25.6814, 1.20361
25.9655, 1.20439
26.2496, 1.20477
26.439, 1.20275