Folder: superconductor_data/mgb2/chen_2008/mg_1.1/xrd

Note: README.md
[![DOI](https://zenodo.org/badge/DOI/10.5281/zenodo.3904782.svg)](https://doi.org/10.5281/zenodo.3904782)


Data Extraction Repository for
R.A Makin and S.M. Durbin, “Structural motifs: A potential pathway to superconductivity at standard temperature and pressure.”


### References


## YBCO

[1] C. Camerlingo, I. Delfino, and M. Lepore, Supercond. Sci. Technol. 15, 1606 (2002).\
    (https://doi.org/10.1088%2F0953-2048%2F15%2F11%2F321)


## Pb

[1] S. Bose, Size Effects in Nanostructured Superconductors, PhD Thesis, 2007.
https://www.tifr.res.in/~superconductivity/pdfs/sangitabose.pdf

## Nb

[1] S. Bose, Size Effects in Nanostructured Superconductors, PhD Thesis, 2007.
https://www.tifr.res.in/~superconductivity/pdfs/sangitabose.pdf

[2] C. T. Wu, Thin Solid Films 64, 103 (1979).\
https://doi.org/10.1016/0040-6090(79)90549-2

[3] G. Wu, A.-M. Valente, H. L. Phillips, H. Wang, A. T. Wu, T. J. Renk, and P. Provencio, Thin Solid Films 489, 56 (2005).\
https://doi.org/10.1016/j.tsf.2005.04.099

## Nb3Sn

[1] K. Kwasnitza, A. V. Narlikar, H. U. Nissen, and D. Salathé, Cryogenics 20, 715 (1980).\
https://doi.org/10.1016/0011-2275(80)90026-0

[2]G. Rosaz, S. Calatroni, F. Leaux, F. Motschmann, Z. Mydlarz, M. Taborelli, and W. Vollenberg, Development of Nb3Sn Coatings by Magnetron Sputtering for SRF Cavities, Proceedings of the 17th International Conference on RF Superconductivity SRF2015, 4 pages (2015). https://doi.org/10.18429/JACOW-SRF2015-TUPB051


## Nb3Ge

[1] M. Akinaga and T. Ueno, Applied Surface Science 33–34, 1269 (1988). \
https://doi.org/10.1016/0169-4332(88)90444-8

[2] S. Mase, T. Fukami, and S. Takano, Phase Transitions 8, 187 (1987).\
https://doi.org/10.1080/01411598708209375


## Nb3Al

[1] P. Li, W. Zhang, W. Lin, G. Wang, X. Pan, Z. Yu, X. Yang, B. Sun, G. Yan, Y. Zhang, C. H. Cheng, Y. Feng, and Y. Zhao, Journal of Alloys and Compounds 742, 130 (2018).\
https://doi.org/10.1016/j.jallcom.2018.01.248


## MgB2

[1] S. K. Chen, A. Serquis, G. Serrano, K. A. Yates, M. G. Blamire, D. Guthrie, J. Cooper, H. Wang, S. Margadonna, and J. L. MacManus‐Driscoll, Advanced Functional Materials 18, 113 (2008).\
(https://doi.org/10.1002/adfm.200700254)

[2] J. Nagamatsu, N. Nakagawa, T. Muranaka, Y. Zenitani, and J. Akimitsu, Nature 410, 63 (2001).\
 (https://doi.org/10.1038/35065039)

[3] Y. Wang, C. Zhuang, X. Sun, X. Huang, Q. Fu, Z. Liao, D. Yu, and Q. Feng, Supercond. Sci. Technol. 22, 125015 (2009).\
(https://doi.org/10.1088%2F0953-2048%2F22%2F12%2F125015)

[4] K. A. Yates, Burnell, N. A. Stelmashenko, D.-J. Kang, H. N. Lee, B. Oh, and M. G. Blamire, Phys. Rev. B 68, 220512 (2003).\
(https://doi.org/10.1103/PhysRevB.68.220512)

[5] K. A. Yates, G. Burnell, Z. Lockman, A. Kursumovic, J. L. MacManus Driscoll, and M. G. Blamire, Journal of Physics and Chemistry of Solids 67, 333 (2006).\
(https://doi.org/10.1016/j.jpcs.2005.10.114)

[6] C. Terzioglu, A. Varilci, and I. Belenli, Investigation of Effect of Annealing Temperature on Mechanical Prop

File: curve_1_fit.dat
24.0,0.000335442
24.01,0.000341182
24.02,0.000347069
24.03,0.000353108
24.04,0.000359306
24.05,0.000365666
24.06,0.000372196
24.07,0.0003789
24.08,0.000385785
24.09,0.000392858
24.1,0.000400125
24.11,0.000407594
24.12,0.000415272
24.13,0.000423166
24.14,0.000431286
24.15,0.000439639
24.16,0.000448234
24.17,0.000457081
24.18,0.000466189
24.19,0.000475569
24.2,0.000485232
24.21,0.000495189
24.22,0.000505451
24.23,0.000516032
24.24,0.000526944
24.25,0.000538202
24.26,0.000549819
24.27,0.000561811
24.28,0.000574195
24.29,0.000586986
24.3,0.000600203
24.31,0.000613865
24.32,0.000627991
24.33,0.000642603
24.34,0.000657722
24.35,0.000673372
24.36,0.000689578
24.37,0.000706366
24.38,0.000723763
24.39,0.000741799
24.4,0.000760505
24.41,0.000779913
24.42,0.000800058
24.43,0.000820978
24.44,0.000842712
24.45,0.000865302
24.46,0.000888792
24.47,0.000913228
24.48,0.000938663
24.49,0.000965149
24.5,0.000992743
24.51,0.00102151
24.52,0.0010515
24.53,0.00108281
24.54,0.00111549
24.55,0.00114962
24.56,0.0011853
24.57,0.00122262
24.58,0.00126166
24.59,0.00130255
24.6,0.00134538
24.61,0.00139028
24.62,0.00143738
24.63,0.00148682
24.64,0.00153875
24.65,0.00159333
24.66,0.00165074
24.67,0.00171116
24.68,0.0017748
24.69,0.00184188
24.7,0.00191263
24.71,0.00198731
24.72,0.0020662
24.73,0.00214959
24.74,0.00223782
24.75,0.00233122
24.76,0.00243018
24.77,0.00253512
24.78,0.00264647
24.79,0.00276472
24.8,0.00289038
24.81,0.00302402
24.82,0.00316624
24.83,0.0033177
24.84,0.00347909
24.85,0.00365116
24.86,0.00383472
24.87,0.00403063
24.88,0.00423978
24.89,0.00446312
24.9,0.00470166
24.91,0.0049564
24.92,0.00522838
24.93,0.00551864
24.94,0.00582819
24.95,0.00615796
24.96,0.00650876
24.97,0.00688125
24.98,0.00727582
24.99,0.00769252
25,0.00813092
25.01,0.00859005
25.02,0.00906814
25.03,0.00956258
25.04,0.0100697
25.05,0.0105845
25.06,0.0111008
25.07,0.011611
25.08,0.0121062
25.09,0.0125762
25.1,0.01301
25.11,0.0133961
25.12,0.0137233
25.13,0.0139811
25.14,0.0141609
25.15,0.0142562
25.16,0.0142636
25.17,0.0141828
25.18,0.0140167
25.19,0.0137714
25.2,0.0134551
25.21,0.0130781
25.22,0.0126515
25.23,0.0121867
25.24,0.011695
25.25,0.0111866
25.26,0.0106708
25.27,0.0101552
25.28,0.00964647
25.29,0.00914964
25.3,0.0086686
25.31,0.00820617
25.32,0.00776422
25.33,0.00734385
25.34,0.00694558
25.35,0.00656943
25.36,0.00621504
25.37,0.00588182
25.38,0.00556896
25.39,0.00527554
25.4,0.00500058
25.41,0.00474303
25.42,0.00450186
25.43,0.00427605
25.44,0.0040646
25.45,0.00386655
25.46,0.00368099
25.47,0.00350705
25.48,0.00334393
25.49,0.00319087
25.5,0.00304715
25.51,0.00291212
25.52,0.00278517
25.53,0.00266572
25.54,0.00255325
25.55,0.00244728
25.56,0.00234734
25.57,0.00225304
25.58,0.00216398
25.59,0.0020798
25.6,0.00200018
25.61,0.00192482
25.62,0.00185343
25.63,0.00178576
25.64,0.00172156
25.65,0.00166061
25.66,0.00160272
25.67,0.00154768
25.68,0.00149531
25.69,0.00144547
25.7,0.00139799
25.71,0.00135273
25.72,0.00130956
25.73,0.00126836
25.74,0.00122901
25.75,0.00119142
25.76,0.00115547
25.77,0.00112108
25.78,0.00108816
25.79,0.00105664
25.8,0.00102643
25.81,0.000997462
25.82,0.000969677
25.83,0.00094301
25.84,0.000917404
25.85,0.000892804
25.86,0.00086916
25.87,0.000846423
25.88,0.000824549
25.89,0.000803496
25.9,0.000783224
25.91,0.000763695
25.92,0.000744874
25.93,0.000726729
25.94,0.000709227
25.95,0.00069234
25.96,0.000676039
25.97,0.000660297
25.98,0.000645091
25.99,0.000630396
26,0.00061619
26.01,0.000602452
26.02,0.000589162
26.03,0.000576301
26.04,0.000563851
26.05,0.000551795
26.06,0.000540116
26.07,0.000528799
26.08,0.000517831
26.09,0.000507195
26.1,0.00049688
26.11,0.000486874
26.12,0.000477162
26.13,0.000467736
26.14,0.000458583
26.15,0.000449693
26.16,0.000441056
26.17,0.000432664
26.18,0.000424506
26.19,0.000416575
26.2,0.000408861
26.21,0.000401358
26.22,0.000394058
26.23,0.000386953
26.24,0.000380037
26.25,0.000373303
26.26,0.000366744
26.27,0.000360356
26.28,0.000354132
26.29,0.000348066
26.3,0.000342154
26.31,0.00033639
26.32,0.000330769
26.33,0.000325287
26.34,0.000319939
26.35,0.00031472
26.36,0.000309628
26.37,0.000304657
26.38,0.000299804
26.39,0.000295065
26.4,0.000290437
26.41,0.000285917
26.42,0.0002815
26.43,0.000277184
26.44,0.000272966
26.45,0.000268843
26.46,0.000264813
26.47,0.000260871
26.48,0.000257017
26.49,0.000253246
26.5,0.000249558
26.51,0.000245949
26.52,0.000242417
26.53,0.000238961
26.54,0.000235577
26.55,0.000232265
26.56,0.000229021
26.57,0.000225845
26.58,0.000222734
26.59,0.000219686
26.6,0.0002167
26.61,0.000213775
26.62,0.000210907
26.63,0.000208097
26.64,0.000205343
26.65,0.000202642
26.66,0.000199994
26.67,0.000197398
26.68,0.000194851
26.69,0.000192354
26.7,0.000189903
26.71,0.0001875
26.72,0.000185141
26.73,0.000182826
26.74,0.000180554
26.75,0.000178324
26.76,0.000176135
26.77,0.000173986
26.78,0.000171876
26.79,0.000169804
26.8,0.000167769
26.81,0.00016577
26.82,0.000163807
26.83,0.000161878
26.84,0.000159983
26.85,0.00015812
26.86,0.00015629
26.87,0.000154492
26.88,0.000152724
26.89,0.000150986
26.9,0.000149278
26.91,0.000147599
26.92,0.000145947
26.93,0.000144323
26.94,0.000142726
26.95,0.000141155
26.96,0.00013961
26.97,0.00013809
26.98,0.000136594
26.99,0.000135123

File: curve_total_fit.dat
24.0,0.802915
24.01,0.802921
24.02,0.802927
24.03,0.802933
24.04,0.802939
24.05,0.802946
24.06,0.802952
24.07,0.802959
24.08,0.802966
24.09,0.802973
24.1,0.80298
24.11,0.802988
24.12,0.802995
24.13,0.803003
24.14,0.803011
24.15,0.80302
24.16,0.803028
24.17,0.803037
24.18,0.803046
24.19,0.803056
24.2,0.803065
24.21,0.803075
24.22,0.803085
24.23,0.803096
24.24,0.803107
24.25,0.803118
24.26,0.80313
24.27,0.803142
24.28,0.803154
24.29,0.803167
24.3,0.80318
24.31,0.803194
24.32,0.803208
24.33,0.803223
24.34,0.803238
24.35,0.803253
24.36,0.80327
24.37,0.803286
24.38,0.803304
24.39,0.803322
24.4,0.803341
24.41,0.80336
24.42,0.80338
24.43,0.803401
24.44,0.803423
24.45,0.803445
24.46,0.803469
24.47,0.803493
24.48,0.803519
24.49,0.803545
24.5,0.803573
24.51,0.803602
24.52,0.803632
24.53,0.803663
24.54,0.803695
24.55,0.80373
24.56,0.803765
24.57,0.803803
24.58,0.803842
24.59,0.803883
24.6,0.803925
24.61,0.80397
24.62,0.804017
24.63,0.804067
24.64,0.804119
24.65,0.804173
24.66,0.804231
24.67,0.804291
24.68,0.804355
24.69,0.804422
24.7,0.804493
24.71,0.804567
24.72,0.804646
24.73,0.80473
24.74,0.804818
24.75,0.804911
24.76,0.80501
24.77,0.805115
24.78,0.805226
24.79,0.805345
24.8,0.80547
24.81,0.805604
24.82,0.805746
24.83,0.805898
24.84,0.806059
24.85,0.806231
24.86,0.806415
24.87,0.806611
24.88,0.80682
24.89,0.807043
24.9,0.807282
24.91,0.807536
24.92,0.807808
24.93,0.808099
24.94,0.808408
24.95,0.808738
24.96,0.809089
24.97,0.809461
24.98,0.809856
24.99,0.810273
25,0.810711
25.01,0.81117
25.02,0.811648
25.03,0.812143
25.04,0.81265
25.05,0.813164
25.06,0.813681
25.07,0.814191
25.08,0.814686
25.09,0.815156
25.1,0.81559
25.11,0.815976
25.12,0.816303
25.13,0.816561
25.14,0.816741
25.15,0.816836
25.16,0.816844
25.17,0.816763
25.18,0.816597
25.19,0.816351
25.2,0.816035
25.21,0.815658
25.22,0.815231
25.23,0.814767
25.24,0.814275
25.25,0.813767
25.26,0.813251
25.27,0.812735
25.28,0.812226
25.29,0.81173
25.3,0.811249
25.31,0.810786
25.32,0.810344
25.33,0.809924
25.34,0.809526
25.35,0.809149
25.36,0.808795
25.37,0.808462
25.38,0.808149
25.39,0.807856
25.4,0.807581
25.41,0.807323
25.42,0.807082
25.43,0.806856
25.44,0.806645
25.45,0.806447
25.46,0.806261
25.47,0.806087
25.48,0.805924
25.49,0.805771
25.5,0.805627
25.51,0.805492
25.52,0.805365
25.53,0.805246
25.54,0.805133
25.55,0.805027
25.56,0.804927
25.57,0.804833
25.58,0.804744
25.59,0.80466
25.6,0.80458
25.61,0.804505
25.62,0.804433
25.63,0.804366
25.64,0.804302
25.65,0.804241
25.66,0.804183
25.67,0.804128
25.68,0.804075
25.69,0.804025
25.7,0.803978
25.71,0.803933
25.72,0.80389
25.73,0.803848
25.74,0.803809
25.75,0.803771
25.76,0.803735
25.77,0.803701
25.78,0.803668
25.79,0.803637
25.8,0.803606
25.81,0.803577
25.82,0.80355
25.83,0.803523
25.84,0.803497
25.85,0.803473
25.86,0.803449
25.87,0.803426
25.88,0.803405
25.89,0.803383
25.9,0.803363
25.91,0.803344
25.92,0.803325
25.93,0.803307
25.94,0.803289
25.95,0.803272
25.96,0.803256
25.97,0.80324
25.98,0.803225
25.99,0.80321
26,0.803196
26.01,0.803182
26.02,0.803169
26.03,0.803156
26.04,0.803144
26.05,0.803132
26.06,0.80312
26.07,0.803109
26.08,0.803098
26.09,0.803087
26.1,0.803077
26.11,0.803067
26.12,0.803057
26.13,0.803048
26.14,0.803039
26.15,0.80303
26.16,0.803021
26.17,0.803013
26.18,0.803005
26.19,0.802997
26.2,0.802989
26.21,0.802981
26.22,0.802974
26.23,0.802967
26.24,0.80296
26.25,0.802953
26.26,0.802947
26.27,0.80294
26.28,0.802934
26.29,0.802928
26.3,0.802922
26.31,0.802916
26.32,0.802911
26.33,0.802905
26.34,0.8029
26.35,0.802895
26.36,0.80289
26.37,0.802885
26.38,0.80288
26.39,0.802875
26.4,0.80287
26.41,0.802866
26.42,0.802862
26.43,0.802857
26.44,0.802853
26.45,0.802849
26.46,0.802845
26.47,0.802841
26.48,0.802837
26.49,0.802833
26.5,0.80283
26.51,0.802826
26.52,0.802822
26.53,0.802819
26.54,0.802816
26.55,0.802812
26.56,0.802809
26.57,0.802806
26.58,0.802803
26.59,0.8028
26.6,0.802797
26.61,0.802794
26.62,0.802791
26.63,0.802788
26.64,0.802785
26.65,0.802783
26.66,0.80278
26.67,0.802777
26.68,0.802775
26.69,0.802772
26.7,0.80277
26.71,0.802767
26.72,0.802765
26.73,0.802763
26.74,0.802761
26.75,0.802758
26.76,0.802756
26.77,0.802754
26.78,0.802752
26.79,0.80275
26.8,0.802748
26.81,0.802746
26.82,0.802744
26.83,0.802742
26.84,0.80274
26.85,0.802738
26.86,0.802736
26.87,0.802734
26.88,0.802733
26.89,0.802731
26.9,0.802729
26.91,0.802728
26.92,0.802726
26.93,0.802724
26.94,0.802723
26.95,0.802721
26.96,0.80272
26.97,0.802718
26.98,0.802717
26.99,0.802715

File: xrd.csv
23.882, 0.802854
24.1661, 0.802835
24.4502, 0.804815
24.7343, 0.804795
24.9237, 0.807983
25.1132, 0.815971
25.3026, 0.811557
25.492, 0.804343
25.7761, 0.803923
26.0602, 0.803503
26.3443, 0.803884