Folder: superconductor_data/pb/bose_2007/14nm/xrd

Note: pb/bose_2007/14nm/xrd/summary.md
## XRD Analysis

#### Curve 1 (001 Peak)
**Type**: Lorentzian\
**amplitude** 15.8\
**center**: 36.35\
**Ïƒ**: 0.254



## S<sup>2</sup>

**Amplitude of (111) Peak:** 42.59\
**E<sub>110</sub>:** 0.14721790409827645


Calculated by using S<sup>2</sup> and E<sub>110</sub> value of the 40nm film.\
**S<sup>2</sup>:** 0.038025757599752



**T<sub>C</sub>:**  7.14 K


## Reference

XRD from Figure 4.3 of Bose\
T<sub>C</sub> from Table 4.5 of Bose



S. Bose, Size Effects in Nanostructured Superconductors, PhD Thesis, 2007.
https://www.tifr.res.in/~superconductivity/pdfs/sangitabose.pdf

Note: README.md
[![DOI](https://zenodo.org/badge/DOI/10.5281/zenodo.3904782.svg)](https://doi.org/10.5281/zenodo.3904782)


Data Extraction Repository for
R.A Makin and S.M. Durbin, “Structural motifs: A potential pathway to superconductivity at standard temperature and pressure.”


### References


## YBCO

[1] C. Camerlingo, I. Delfino, and M. Lepore, Supercond. Sci. Technol. 15, 1606 (2002).\
    (https://doi.org/10.1088%2F0953-2048%2F15%2F11%2F321)


## Pb

[1] S. Bose, Size Effects in Nanostructured Superconductors, PhD Thesis, 2007.
https://www.tifr.res.in/~superconductivity/pdfs/sangitabose.pdf

## Nb

[1] S. Bose, Size Effects in Nanostructured Superconductors, PhD Thesis, 2007.
https://www.tifr.res.in/~superconductivity/pdfs/sangitabose.pdf

[2] C. T. Wu, Thin Solid Films 64, 103 (1979).\
https://doi.org/10.1016/0040-6090(79)90549-2

[3] G. Wu, A.-M. Valente, H. L. Phillips, H. Wang, A. T. Wu, T. J. Renk, and P. Provencio, Thin Solid Films 489, 56 (2005).\
https://doi.org/10.1016/j.tsf.2005.04.099

## Nb3Sn

[1] K. Kwasnitza, A. V. Narlikar, H. U. Nissen, and D. Salathé, Cryogenics 20, 715 (1980).\
https://doi.org/10.1016/0011-2275(80)90026-0

[2]G. Rosaz, S. Calatroni, F. Leaux, F. Motschmann, Z. Mydlarz, M. Taborelli, and W. Vollenberg, Development of Nb3Sn Coatings by Magnetron Sputtering for SRF Cavities, Proceedings of the 17th International Conference on RF Superconductivity SRF2015, 4 pages (2015). https://doi.org/10.18429/JACOW-SRF2015-TUPB051


## Nb3Ge

[1] M. Akinaga and T. Ueno, Applied Surface Science 33–34, 1269 (1988). \
https://doi.org/10.1016/0169-4332(88)90444-8

[2] S. Mase, T. Fukami, and S. Takano, Phase Transitions 8, 187 (1987).\
https://doi.org/10.1080/01411598708209375


## Nb3Al

[1] P. Li, W. Zhang, W. Lin, G. Wang, X. Pan, Z. Yu, X. Yang, B. Sun, G. Yan, Y. Zhang, C. H. Cheng, Y. Feng, and Y. Zhao, Journal of Alloys and Compounds 742, 130 (2018).\
https://doi.org/10.1016/j.jallcom.2018.01.248


## MgB2

[1] S. K. Chen, A. Serquis, G. Serrano, K. A. Yates, M. G. Blamire, D. Guthrie, J. Cooper, H. Wang, S. Margadonna, and J. L. MacManus‐Driscoll, Advanced Functional Materials 18, 113 (2008).\
(https://doi.org/10.1002/adfm.200700254)

[2] J. Nagamatsu, N. Nakagawa, T. Muranaka, Y. Zenitani, and J. Akimitsu, Nature 410, 63 (2001).\
 (https://doi.org/10.1038/35065039)

[3] Y. Wang, C. Zhuang, X. Sun, X. Huang, Q. Fu, Z. Liao, D. Yu, and Q. Feng, Supercond. Sci. Technol. 22, 125015 (2009).\
(https://doi.org/10.1088%2F0953-2048%2F22%2F12%2F125015)

[4] K. A. Yates, Burnell, N. A. Stelmashenko, D.-J. Kang, H. N. Lee, B. Oh, and M. G. Blamire, Phys. Rev. B 68, 220512 (2003).\
(https://doi.org/10.1103/PhysRevB.68.220512)

[5] K. A. Yates, G. Burnell, Z. Lockman, A. Kursumovic, J. L. MacManus Driscoll, and M. G. Blamire, Journal of Physics and Chemistry of Solids 67, 333 (2006).\
(https://doi.org/10.1016/j.jpcs.2005.10.114)

[6] C. Terzioglu, A. Varilci, and I. Belenli, Investigation of Effect of Annealing Temperature on Mechanical Prop

File: curve_1_fit.dat
35.0,0.138279
35.01,0.140332
35.02,0.142431
35.03,0.144577
35.04,0.146772
35.05,0.149018
35.06,0.151315
35.07,0.153665
35.08,0.156071
35.09,0.158533
35.1,0.161053
35.11,0.163634
35.12,0.166278
35.13,0.168986
35.14,0.17176
35.15,0.174602
35.16,0.177516
35.17,0.180503
35.18,0.183566
35.19,0.186707
35.2,0.189929
35.21,0.193234
35.22,0.196627
35.23,0.200109
35.24,0.203684
35.25,0.207355
35.26,0.211126
35.27,0.215
35.28,0.218982
35.29,0.223074
35.3,0.227282
35.31,0.231609
35.32,0.236061
35.33,0.240641
35.34,0.245355
35.35,0.250209
35.36,0.255207
35.37,0.260355
35.38,0.26566
35.39,0.271128
35.4,0.276765
35.41,0.282579
35.42,0.288577
35.43,0.294766
35.44,0.301156
35.45,0.307754
35.46,0.31457
35.47,0.321613
35.48,0.328894
35.49,0.336423
35.5,0.344212
35.51,0.352272
35.52,0.360616
35.53,0.369258
35.54,0.378212
35.55,0.387493
35.56,0.397116
35.57,0.407099
35.58,0.41746
35.59,0.428218
35.6,0.439393
35.61,0.451007
35.62,0.463083
35.63,0.475645
35.64,0.488719
35.65,0.502335
35.66,0.51652
35.67,0.531308
35.68,0.546733
35.69,0.56283
35.7,0.57964
35.71,0.597204
35.72,0.615567
35.73,0.634778
35.74,0.65489
35.75,0.675958
35.76,0.698043
35.77,0.721211
35.78,0.745532
35.79,0.771082
35.8,0.797945
35.81,0.826209
35.82,0.855973
35.83,0.887341
35.84,0.920429
35.85,0.955362
35.86,0.992276
35.87,1.03132
35.88,1.07266
35.89,1.11646
35.9,1.16293
35.91,1.21229
35.92,1.26475
35.93,1.32059
35.94,1.38009
35.95,1.44356
35.96,1.51135
35.97,1.58385
35.98,1.66148
35.99,1.74471
36,1.83408
36.01,1.93015
36.02,2.03359
36.03,2.14512
36.04,2.26554
36.05,2.39577
36.06,2.5368
36.07,2.68978
36.08,2.85597
36.09,3.03676
36.1,3.23375
36.11,3.44869
36.12,3.68352
36.13,3.94043
36.14,4.22179
36.15,4.53021
36.16,4.86854
36.17,5.23978
36.18,5.64713
36.19,6.09379
36.2,6.58292
36.21,7.11734
36.22,7.69929
36.23,8.32993
36.24,9.00881
36.25,9.73306
36.26,10.4965
36.27,11.2889
36.28,12.0944
36.29,12.8916
36.3,13.6531
36.31,14.3465
36.32,14.9365
36.33,15.3885
36.34,15.6731
36.35,15.7704
36.36,15.6731
36.37,15.3885
36.38,14.9365
36.39,14.3465
36.4,13.6531
36.41,12.8916
36.42,12.0944
36.43,11.2889
36.44,10.4965
36.45,9.73306
36.46,9.00881
36.47,8.32993
36.48,7.69929
36.49,7.11734
36.5,6.58292
36.51,6.09379
36.52,5.64713
36.53,5.23978
36.54,4.86854
36.55,4.53021
36.56,4.22179
36.57,3.94043
36.58,3.68352
36.59,3.44869
36.6,3.23375
36.61,3.03676
36.62,2.85597
36.63,2.68978
36.64,2.5368
36.65,2.39577
36.66,2.26554
36.67,2.14512
36.68,2.03359
36.69,1.93015
36.7,1.83408
36.71,1.74471
36.72,1.66148
36.73,1.58385
36.74,1.51135
36.75,1.44356
36.76,1.38009
36.77,1.32059
36.78,1.26475
36.79,1.21229
36.8,1.16293
36.81,1.11646
36.82,1.07266
36.83,1.03132
36.84,0.992276
36.85,0.955362
36.86,0.920429
36.87,0.887341
36.88,0.855973
36.89,0.826209
36.9,0.797945
36.91,0.771082
36.92,0.745532
36.93,0.721211
36.94,0.698043
36.95,0.675958
36.96,0.65489
36.97,0.634778
36.98,0.615567
36.99,0.597204
37,0.57964
37.01,0.56283
37.02,0.546733
37.03,0.531308
37.04,0.51652
37.05,0.502335
37.06,0.488719
37.07,0.475645
37.08,0.463083
37.09,0.451007
37.1,0.439393
37.11,0.428218
37.12,0.41746
37.13,0.407099
37.14,0.397116
37.15,0.387493
37.16,0.378212
37.17,0.369258
37.18,0.360616
37.19,0.352272
37.2,0.344212
37.21,0.336423
37.22,0.328894
37.23,0.321613
37.24,0.31457
37.25,0.307754
37.26,0.301156
37.27,0.294766
37.28,0.288577
37.29,0.282579
37.3,0.276765
37.31,0.271128
37.32,0.26566
37.33,0.260355
37.34,0.255207
37.35,0.250209
37.36,0.245355
37.37,0.240641
37.38,0.236061
37.39,0.231609
37.4,0.227282
37.41,0.223074
37.42,0.218982
37.43,0.215
37.44,0.211126
37.45,0.207355
37.46,0.203684
37.47,0.200109
37.48,0.196627
37.49,0.193234
37.5,0.189929
37.51,0.186707
37.52,0.183566
37.53,0.180503
37.54,0.177516
37.55,0.174602
37.56,0.17176
37.57,0.168986
37.58,0.166278
37.59,0.163634
37.6,0.161053
37.61,0.158533
37.62,0.156071
37.63,0.153665
37.64,0.151315
37.65,0.149018
37.66,0.146772
37.67,0.144577
37.68,0.142431
37.69,0.140332
37.7,0.138279
37.71,0.13627
37.72,0.134305
37.73,0.132382
37.74,0.1305
37.75,0.128657
37.76,0.126853
37.77,0.125087
37.78,0.123357
37.79,0.121663
37.8,0.120004
37.81,0.118378
37.82,0.116785
37.83,0.115223
37.84,0.113693
37.85,0.112193
37.86,0.110722
37.87,0.10928
37.88,0.107866
37.89,0.106479
37.9,0.105119
37.91,0.103784
37.92,0.102475
37.93,0.10119
37.94,0.0999293
37.95,0.0986919
37.96,0.0974773
37.97,0.0962849
37.98,0.0951142
37.99,0.0939647
37.999,0.0929479

File: curve_total_fit.dat
35.0,258.268
35.01,258.27
35.02,258.272
35.03,258.275
35.04,258.277
35.05,258.279
35.06,258.281
35.07,258.284
35.08,258.286
35.09,258.289
35.1,258.291
35.11,258.294
35.12,258.296
35.13,258.299
35.14,258.302
35.15,258.305
35.16,258.308
35.17,258.311
35.18,258.314
35.19,258.317
35.2,258.32
35.21,258.323
35.22,258.327
35.23,258.33
35.24,258.334
35.25,258.337
35.26,258.341
35.27,258.345
35.28,258.349
35.29,258.353
35.3,258.357
35.31,258.362
35.32,258.366
35.33,258.371
35.34,258.375
35.35,258.38
35.36,258.385
35.37,258.39
35.38,258.396
35.39,258.401
35.4,258.407
35.41,258.413
35.42,258.419
35.43,258.425
35.44,258.431
35.45,258.438
35.46,258.445
35.47,258.452
35.48,258.459
35.49,258.466
35.5,258.474
35.51,258.482
35.52,258.491
35.53,258.499
35.54,258.508
35.55,258.517
35.56,258.527
35.57,258.537
35.58,258.547
35.59,258.558
35.6,258.569
35.61,258.581
35.62,258.593
35.63,258.606
35.64,258.619
35.65,258.632
35.66,258.647
35.67,258.661
35.68,258.677
35.69,258.693
35.7,258.71
35.71,258.727
35.72,258.746
35.73,258.765
35.74,258.785
35.75,258.806
35.76,258.828
35.77,258.851
35.78,258.876
35.79,258.901
35.8,258.928
35.81,258.956
35.82,258.986
35.83,259.017
35.84,259.05
35.85,259.085
35.86,259.122
35.87,259.161
35.88,259.203
35.89,259.246
35.9,259.293
35.91,259.342
35.92,259.395
35.93,259.451
35.94,259.51
35.95,259.574
35.96,259.641
35.97,259.714
35.98,259.791
35.99,259.875
36,259.964
36.01,260.06
36.02,260.164
36.03,260.275
36.04,260.396
36.05,260.526
36.06,260.667
36.07,260.82
36.08,260.986
36.09,261.167
36.1,261.364
36.11,261.579
36.12,261.814
36.13,262.07
36.14,262.352
36.15,262.66
36.16,262.999
36.17,263.37
36.18,263.777
36.19,264.224
36.2,264.713
36.21,265.247
36.22,265.829
36.23,266.46
36.24,267.139
36.25,267.863
36.26,268.627
36.27,269.419
36.28,270.224
36.29,271.022
36.3,271.783
36.31,272.477
36.32,273.067
36.33,273.519
36.34,273.803
36.35,273.9
36.36,273.803
36.37,273.519
36.38,273.067
36.39,272.477
36.4,271.783
36.41,271.022
36.42,270.224
36.43,269.419
36.44,268.627
36.45,267.863
36.46,267.139
36.47,266.46
36.48,265.829
36.49,265.247
36.5,264.713
36.51,264.224
36.52,263.777
36.53,263.37
36.54,262.999
36.55,262.66
36.56,262.352
36.57,262.07
36.58,261.814
36.59,261.579
36.6,261.364
36.61,261.167
36.62,260.986
36.63,260.82
36.64,260.667
36.65,260.526
36.66,260.396
36.67,260.275
36.68,260.164
36.69,260.06
36.7,259.964
36.71,259.875
36.72,259.791
36.73,259.714
36.74,259.641
36.75,259.574
36.76,259.51
36.77,259.451
36.78,259.395
36.79,259.342
36.8,259.293
36.81,259.246
36.82,259.203
36.83,259.161
36.84,259.122
36.85,259.085
36.86,259.05
36.87,259.017
36.88,258.986
36.89,258.956
36.9,258.928
36.91,258.901
36.92,258.876
36.93,258.851
36.94,258.828
36.95,258.806
36.96,258.785
36.97,258.765
36.98,258.746
36.99,258.727
37,258.71
37.01,258.693
37.02,258.677
37.03,258.661
37.04,258.647
37.05,258.632
37.06,258.619
37.07,258.606
37.08,258.593
37.09,258.581
37.1,258.569
37.11,258.558
37.12,258.547
37.13,258.537
37.14,258.527
37.15,258.517
37.16,258.508
37.17,258.499
37.18,258.491
37.19,258.482
37.2,258.474
37.21,258.466
37.22,258.459
37.23,258.452
37.24,258.445
37.25,258.438
37.26,258.431
37.27,258.425
37.28,258.419
37.29,258.413
37.3,258.407
37.31,258.401
37.32,258.396
37.33,258.39
37.34,258.385
37.35,258.38
37.36,258.375
37.37,258.371
37.38,258.366
37.39,258.362
37.4,258.357
37.41,258.353
37.42,258.349
37.43,258.345
37.44,258.341
37.45,258.337
37.46,258.334
37.47,258.33
37.48,258.327
37.49,258.323
37.5,258.32
37.51,258.317
37.52,258.314
37.53,258.311
37.54,258.308
37.55,258.305
37.56,258.302
37.57,258.299
37.58,258.296
37.59,258.294
37.6,258.291
37.61,258.289
37.62,258.286
37.63,258.284
37.64,258.281
37.65,258.279
37.66,258.277
37.67,258.275
37.68,258.272
37.69,258.27
37.7,258.268
37.71,258.266
37.72,258.264
37.73,258.262
37.74,258.26
37.75,258.259
37.76,258.257
37.77,258.255
37.78,258.253
37.79,258.252
37.8,258.25
37.81,258.248
37.82,258.247
37.83,258.245
37.84,258.244
37.85,258.242
37.86,258.241
37.87,258.239
37.88,258.238
37.89,258.236
37.9,258.235
37.91,258.234
37.92,258.232
37.93,258.231
37.94,258.23
37.95,258.229
37.96,258.227
37.97,258.226
37.98,258.225
37.99,258.224
37.999,258.223