Folder: superconductor_data/pb/bose_2007/7nm/xrd

Note: pb/bose_2007/7nm/xrd/summary.md
## XRD Analysis

#### Curve 1 (001 Peak)
**Type**: Lorentzian\
**amplitude** 9.244\
**center**: 36.307\
**Ïƒ**: 0.67



## S<sup>2</sup>
**Amplitude of (111) Peak:** 29.72\
**E<sub>110</sub>:** 0.32203228428949915

## T<sub>C</sub>
**T<sub>C</sub>:**  6.41 K


### Reference
XRD from Figure 4.3 of Bose\
T<sub>C</sub> from Table 4.5 of Bose


S. Bose, Size Effects in Nanostructured Superconductors, PhD Thesis, 2007.
https://www.tifr.res.in/~superconductivity/pdfs/sangitabose.pdf

Note: README.md
[![DOI](https://zenodo.org/badge/DOI/10.5281/zenodo.3904782.svg)](https://doi.org/10.5281/zenodo.3904782)


Data Extraction Repository for
R.A Makin and S.M. Durbin, “Structural motifs: A potential pathway to superconductivity at standard temperature and pressure.”


### References


## YBCO

[1] C. Camerlingo, I. Delfino, and M. Lepore, Supercond. Sci. Technol. 15, 1606 (2002).\
    (https://doi.org/10.1088%2F0953-2048%2F15%2F11%2F321)


## Pb

[1] S. Bose, Size Effects in Nanostructured Superconductors, PhD Thesis, 2007.
https://www.tifr.res.in/~superconductivity/pdfs/sangitabose.pdf

## Nb

[1] S. Bose, Size Effects in Nanostructured Superconductors, PhD Thesis, 2007.
https://www.tifr.res.in/~superconductivity/pdfs/sangitabose.pdf

[2] C. T. Wu, Thin Solid Films 64, 103 (1979).\
https://doi.org/10.1016/0040-6090(79)90549-2

[3] G. Wu, A.-M. Valente, H. L. Phillips, H. Wang, A. T. Wu, T. J. Renk, and P. Provencio, Thin Solid Films 489, 56 (2005).\
https://doi.org/10.1016/j.tsf.2005.04.099

## Nb3Sn

[1] K. Kwasnitza, A. V. Narlikar, H. U. Nissen, and D. Salathé, Cryogenics 20, 715 (1980).\
https://doi.org/10.1016/0011-2275(80)90026-0

[2]G. Rosaz, S. Calatroni, F. Leaux, F. Motschmann, Z. Mydlarz, M. Taborelli, and W. Vollenberg, Development of Nb3Sn Coatings by Magnetron Sputtering for SRF Cavities, Proceedings of the 17th International Conference on RF Superconductivity SRF2015, 4 pages (2015). https://doi.org/10.18429/JACOW-SRF2015-TUPB051


## Nb3Ge

[1] M. Akinaga and T. Ueno, Applied Surface Science 33–34, 1269 (1988). \
https://doi.org/10.1016/0169-4332(88)90444-8

[2] S. Mase, T. Fukami, and S. Takano, Phase Transitions 8, 187 (1987).\
https://doi.org/10.1080/01411598708209375


## Nb3Al

[1] P. Li, W. Zhang, W. Lin, G. Wang, X. Pan, Z. Yu, X. Yang, B. Sun, G. Yan, Y. Zhang, C. H. Cheng, Y. Feng, and Y. Zhao, Journal of Alloys and Compounds 742, 130 (2018).\
https://doi.org/10.1016/j.jallcom.2018.01.248


## MgB2

[1] S. K. Chen, A. Serquis, G. Serrano, K. A. Yates, M. G. Blamire, D. Guthrie, J. Cooper, H. Wang, S. Margadonna, and J. L. MacManus‐Driscoll, Advanced Functional Materials 18, 113 (2008).\
(https://doi.org/10.1002/adfm.200700254)

[2] J. Nagamatsu, N. Nakagawa, T. Muranaka, Y. Zenitani, and J. Akimitsu, Nature 410, 63 (2001).\
 (https://doi.org/10.1038/35065039)

[3] Y. Wang, C. Zhuang, X. Sun, X. Huang, Q. Fu, Z. Liao, D. Yu, and Q. Feng, Supercond. Sci. Technol. 22, 125015 (2009).\
(https://doi.org/10.1088%2F0953-2048%2F22%2F12%2F125015)

[4] K. A. Yates, Burnell, N. A. Stelmashenko, D.-J. Kang, H. N. Lee, B. Oh, and M. G. Blamire, Phys. Rev. B 68, 220512 (2003).\
(https://doi.org/10.1103/PhysRevB.68.220512)

[5] K. A. Yates, G. Burnell, Z. Lockman, A. Kursumovic, J. L. MacManus Driscoll, and M. G. Blamire, Journal of Physics and Chemistry of Solids 67, 333 (2006).\
(https://doi.org/10.1016/j.jpcs.2005.10.114)

[6] C. Terzioglu, A. Varilci, and I. Belenli, Investigation of Effect of Annealing Temperature on Mechanical Prop

File: curve_1_fit.dat
35.0,0.563836
35.01,0.572024
35.02,0.580387
35.03,0.588931
35.04,0.597661
35.05,0.606582
35.06,0.615699
35.07,0.625018
35.08,0.634545
35.09,0.644286
35.1,0.654248
35.11,0.664436
35.12,0.674857
35.13,0.685519
35.14,0.696429
35.15,0.707594
35.16,0.719022
35.17,0.730722
35.18,0.7427
35.19,0.754967
35.2,0.767531
35.21,0.780401
35.22,0.793588
35.23,0.807101
35.24,0.82095
35.25,0.835147
35.26,0.849703
35.27,0.86463
35.28,0.879939
35.29,0.895644
35.3,0.911757
35.31,0.928293
35.32,0.945266
35.33,0.962689
35.34,0.98058
35.35,0.998954
35.36,1.01783
35.37,1.03722
35.38,1.05714
35.39,1.07762
35.4,1.09868
35.41,1.12033
35.42,1.14259
35.43,1.16549
35.44,1.18905
35.45,1.2133
35.46,1.23826
35.47,1.26395
35.48,1.29041
35.49,1.31766
35.5,1.34574
35.51,1.37467
35.52,1.40448
35.53,1.43522
35.54,1.46691
35.55,1.49959
35.56,1.53331
35.57,1.56809
35.58,1.60399
35.59,1.64105
35.6,1.6793
35.61,1.71881
35.62,1.75962
35.63,1.80178
35.64,1.84535
35.65,1.89037
35.66,1.93692
35.67,1.98505
35.68,2.03483
35.69,2.08631
35.7,2.13958
35.71,2.1947
35.72,2.25174
35.73,2.31079
35.74,2.37192
35.75,2.43521
35.76,2.50076
35.77,2.56864
35.78,2.63896
35.79,2.7118
35.8,2.78725
35.81,2.86543
35.82,2.94642
35.83,3.03033
35.84,3.11727
35.85,3.20733
35.86,3.30063
35.87,3.39727
35.88,3.49735
35.89,3.60097
35.9,3.70824
35.91,3.81925
35.92,3.9341
35.93,4.05286
35.94,4.1756
35.95,4.30241
35.96,4.43332
35.97,4.56838
35.98,4.70759
35.99,4.85097
36,4.99848
36.01,5.15006
36.02,5.30563
36.03,5.46506
36.04,5.62819
36.05,5.7948
36.06,5.96463
36.07,6.13737
36.08,6.31262
36.09,6.48996
36.1,6.66886
36.11,6.84876
36.12,7.02897
36.13,7.20879
36.14,7.38738
36.15,7.56388
36.16,7.73733
36.17,7.90672
36.18,8.07096
36.19,8.22895
36.2,8.37953
36.21,8.52155
36.22,8.65383
36.23,8.77525
36.24,8.8847
36.25,8.98117
36.26,9.0637
36.27,9.13148
36.28,9.1838
36.29,9.22013
36.3,9.24006
36.31,9.24339
36.32,9.23008
36.33,9.20028
36.34,9.1543
36.35,9.09262
36.36,9.0159
36.37,8.9249
36.38,8.82052
36.39,8.70377
36.4,8.57569
36.41,8.43743
36.42,8.29014
36.43,8.13497
36.44,7.97309
36.45,7.80563
36.46,7.63369
36.47,7.45829
36.48,7.28042
36.49,7.10099
36.5,6.92084
36.51,6.74074
36.52,6.56136
36.53,6.38333
36.54,6.20719
36.55,6.0334
36.56,5.86236
36.57,5.69443
36.58,5.52988
36.59,5.36895
36.6,5.21182
36.61,5.05863
36.62,4.90948
36.63,4.76444
36.64,4.62356
36.65,4.48684
36.66,4.35428
36.67,4.22584
36.68,4.10147
36.69,3.98113
36.7,3.86473
36.71,3.75219
36.72,3.64344
36.73,3.53837
36.74,3.43688
36.75,3.33888
36.76,3.24426
36.77,3.15291
36.78,3.06474
36.79,2.97963
36.8,2.89748
36.81,2.81819
36.82,2.74166
36.83,2.66778
36.84,2.59647
36.85,2.52763
36.86,2.46116
36.87,2.39697
36.88,2.33499
36.89,2.27512
36.9,2.21728
36.91,2.1614
36.92,2.1074
36.93,2.05521
36.94,2.00476
36.95,1.95598
36.96,1.90881
36.97,1.86318
36.98,1.81904
36.99,1.77632
37,1.73498
37.01,1.69496
37.02,1.6562
37.03,1.61867
37.04,1.58232
37.05,1.54709
37.06,1.51295
37.07,1.47986
37.08,1.44778
37.09,1.41666
37.1,1.38649
37.11,1.35721
37.12,1.32879
37.13,1.30122
37.14,1.27444
37.15,1.24845
37.16,1.2232
37.17,1.19867
37.18,1.17483
37.19,1.15167
37.2,1.12916
37.21,1.10726
37.22,1.08598
37.23,1.06527
37.24,1.04512
37.25,1.02552
37.26,1.00644
37.27,0.987871
37.28,0.969789
37.29,0.95218
37.3,0.935029
37.31,0.91832
37.32,0.902039
37.33,0.886173
37.34,0.870707
37.35,0.855628
37.36,0.840926
37.37,0.826586
37.38,0.812599
37.39,0.798953
37.4,0.785637
37.41,0.772642
37.42,0.759956
37.43,0.747572
37.44,0.735479
37.45,0.723669
37.46,0.712134
37.47,0.700864
37.48,0.689853
37.49,0.679093
37.5,0.668576
37.51,0.658295
37.52,0.648244
37.53,0.638416
37.54,0.628804
37.55,0.619402
37.56,0.610205
37.57,0.601206
37.58,0.592401
37.59,0.583783
37.6,0.575348
37.61,0.56709
37.62,0.559005
37.63,0.551089
37.64,0.543335
37.65,0.535741
37.66,0.528302
37.67,0.521014
37.68,0.513873
37.69,0.506874
37.7,0.500015
37.71,0.493292
37.72,0.4867
37.73,0.480238
37.74,0.473901
37.75,0.467687
37.76,0.461592
37.77,0.455613
37.78,0.449748
37.79,0.443993
37.8,0.438347
37.81,0.432805
37.82,0.427367
37.83,0.422028
37.84,0.416788
37.85,0.411643
37.86,0.406591
37.87,0.40163
37.88,0.396759
37.89,0.391973
37.9,0.387273
37.91,0.382656
37.92,0.378119
37.93,0.373662
37.94,0.369282
37.95,0.364977
37.96,0.360747
37.97,0.356588
37.98,0.3525
37.99,0.348481
37.999,0.344921

File: curve_total_fit.dat
35.0,15.5638
35.01,15.572
35.02,15.5804
35.03,15.5889
35.04,15.5977
35.05,15.6066
35.06,15.6157
35.07,15.625
35.08,15.6345
35.09,15.6443
35.1,15.6542
35.11,15.6644
35.12,15.6749
35.13,15.6855
35.14,15.6964
35.15,15.7076
35.16,15.719
35.17,15.7307
35.18,15.7427
35.19,15.755
35.2,15.7675
35.21,15.7804
35.22,15.7936
35.23,15.8071
35.24,15.8209
35.25,15.8351
35.26,15.8497
35.27,15.8646
35.28,15.8799
35.29,15.8956
35.3,15.9118
35.31,15.9283
35.32,15.9453
35.33,15.9627
35.34,15.9806
35.35,15.999
35.36,16.0178
35.37,16.0372
35.38,16.0571
35.39,16.0776
35.4,16.0987
35.41,16.1203
35.42,16.1426
35.43,16.1655
35.44,16.1891
35.45,16.2133
35.46,16.2383
35.47,16.264
35.48,16.2904
35.49,16.3177
35.5,16.3457
35.51,16.3747
35.52,16.4045
35.53,16.4352
35.54,16.4669
35.55,16.4996
35.56,16.5333
35.57,16.5681
35.58,16.604
35.59,16.641
35.6,16.6793
35.61,16.7188
35.62,16.7596
35.63,16.8018
35.64,16.8453
35.65,16.8904
35.66,16.9369
35.67,16.9851
35.68,17.0348
35.69,17.0863
35.7,17.1396
35.71,17.1947
35.72,17.2517
35.73,17.3108
35.74,17.3719
35.75,17.4352
35.76,17.5008
35.77,17.5686
35.78,17.639
35.79,17.7118
35.8,17.7873
35.81,17.8654
35.82,17.9464
35.83,18.0303
35.84,18.1173
35.85,18.2073
35.86,18.3006
35.87,18.3973
35.88,18.4973
35.89,18.601
35.9,18.7082
35.91,18.8193
35.92,18.9341
35.93,19.0529
35.94,19.1756
35.95,19.3024
35.96,19.4333
35.97,19.5684
35.98,19.7076
35.99,19.851
36,19.9985
36.01,20.1501
36.02,20.3056
36.03,20.4651
36.04,20.6282
36.05,20.7948
36.06,20.9646
36.07,21.1374
36.08,21.3126
36.09,21.49
36.1,21.6689
36.11,21.8488
36.12,22.029
36.13,22.2088
36.14,22.3874
36.15,22.5639
36.16,22.7373
36.17,22.9067
36.18,23.071
36.19,23.2289
36.2,23.3795
36.21,23.5215
36.22,23.6538
36.23,23.7752
36.24,23.8847
36.25,23.9812
36.26,24.0637
36.27,24.1315
36.28,24.1838
36.29,24.2201
36.3,24.2401
36.31,24.2434
36.32,24.2301
36.33,24.2003
36.34,24.1543
36.35,24.0926
36.36,24.0159
36.37,23.9249
36.38,23.8205
36.39,23.7038
36.4,23.5757
36.41,23.4374
36.42,23.2901
36.43,23.135
36.44,22.9731
36.45,22.8056
36.46,22.6337
36.47,22.4583
36.48,22.2804
36.49,22.101
36.5,21.9208
36.51,21.7407
36.52,21.5614
36.53,21.3833
36.54,21.2072
36.55,21.0334
36.56,20.8624
36.57,20.6944
36.58,20.5299
36.59,20.3689
36.6,20.2118
36.61,20.0586
36.62,19.9095
36.63,19.7644
36.64,19.6236
36.65,19.4868
36.66,19.3543
36.67,19.2258
36.68,19.1015
36.69,18.9811
36.7,18.8647
36.71,18.7522
36.72,18.6434
36.73,18.5384
36.74,18.4369
36.75,18.3389
36.76,18.2443
36.77,18.1529
36.78,18.0647
36.79,17.9796
36.8,17.8975
36.81,17.8182
36.82,17.7417
36.83,17.6678
36.84,17.5965
36.85,17.5276
36.86,17.4612
36.87,17.397
36.88,17.335
36.89,17.2751
36.9,17.2173
36.91,17.1614
36.92,17.1074
36.93,17.0552
36.94,17.0048
36.95,16.956
36.96,16.9088
36.97,16.8632
36.98,16.819
36.99,16.7763
37,16.735
37.01,16.695
37.02,16.6562
37.03,16.6187
37.04,16.5823
37.05,16.5471
37.06,16.513
37.07,16.4799
37.08,16.4478
37.09,16.4167
37.1,16.3865
37.11,16.3572
37.12,16.3288
37.13,16.3012
37.14,16.2744
37.15,16.2484
37.16,16.2232
37.17,16.1987
37.18,16.1748
37.19,16.1517
37.2,16.1292
37.21,16.1073
37.22,16.086
37.23,16.0653
37.24,16.0451
37.25,16.0255
37.26,16.0064
37.27,15.9879
37.28,15.9698
37.29,15.9522
37.3,15.935
37.31,15.9183
37.32,15.902
37.33,15.8862
37.34,15.8707
37.35,15.8556
37.36,15.8409
37.37,15.8266
37.38,15.8126
37.39,15.799
37.4,15.7856
37.41,15.7726
37.42,15.76
37.43,15.7476
37.44,15.7355
37.45,15.7237
37.46,15.7121
37.47,15.7009
37.48,15.6899
37.49,15.6791
37.5,15.6686
37.51,15.6583
37.52,15.6482
37.53,15.6384
37.54,15.6288
37.55,15.6194
37.56,15.6102
37.57,15.6012
37.58,15.5924
37.59,15.5838
37.6,15.5753
37.61,15.5671
37.62,15.559
37.63,15.5511
37.64,15.5433
37.65,15.5357
37.66,15.5283
37.67,15.521
37.68,15.5139
37.69,15.5069
37.7,15.5
37.71,15.4933
37.72,15.4867
37.73,15.4802
37.74,15.4739
37.75,15.4677
37.76,15.4616
37.77,15.4556
37.78,15.4497
37.79,15.444
37.8,15.4383
37.81,15.4328
37.82,15.4274
37.83,15.422
37.84,15.4168
37.85,15.4116
37.86,15.4066
37.87,15.4016
37.88,15.3968
37.89,15.392
37.9,15.3873
37.91,15.3827
37.92,15.3781
37.93,15.3737
37.94,15.3693
37.95,15.365
37.96,15.3607
37.97,15.3566
37.98,15.3525
37.99,15.3485
37.999,15.3449