Folder: superconductor_data/boron_diamond/ekimov_2004/tc2.4/xrd

Note: boron_diamond/ekimov_2004/tc2.4/xrd/summary.md
## XRD Analysis

#### Curve 1 (220 Fundamental Peak)
**Type**: Lorentzian\
**amplitude:** 424.6\
**center** 38.5\
**width** 0.5


#### Curve 2 (311 Superlattice Peak)
**Type**: Gaussian\
**amplitude** 20.5\
**center** 40.4\
**σ** -0.2


## S<sup>2</sup>

#### Integrated Area of Peaks
**E<sub>220</sub>:** 318.28576\
**E<sub>311</sub>:** 0.15692\
**S<sup>2</sup>:** 0.1085\

## T<sub>C</sub>
**T<sub>C</sub>:**  2.4 K


### Reference
XRD from Figure 2a of Ekimov et al.\
T<sub>C</sub> given in caption of Figure 3b


E. A. Ekimov, V. A. Sidorov, E. D. Bauer, N. N. Mel’nik, N. J. Curro, J. D. Thompson, and S. M. Stishov, Nature 428, 542 (2004).\
https://doi.org/10.1038/nature02449

Note: README.md
[![DOI](https://zenodo.org/badge/DOI/10.5281/zenodo.3904782.svg)](https://doi.org/10.5281/zenodo.3904782)


Data Extraction Repository for
R.A Makin and S.M. Durbin, “Structural motifs: A potential pathway to superconductivity at standard temperature and pressure.”


### References


## YBCO

[1] C. Camerlingo, I. Delfino, and M. Lepore, Supercond. Sci. Technol. 15, 1606 (2002).\
    (https://doi.org/10.1088%2F0953-2048%2F15%2F11%2F321)


## Pb

[1] S. Bose, Size Effects in Nanostructured Superconductors, PhD Thesis, 2007.
https://www.tifr.res.in/~superconductivity/pdfs/sangitabose.pdf

## Nb

[1] S. Bose, Size Effects in Nanostructured Superconductors, PhD Thesis, 2007.
https://www.tifr.res.in/~superconductivity/pdfs/sangitabose.pdf

[2] C. T. Wu, Thin Solid Films 64, 103 (1979).\
https://doi.org/10.1016/0040-6090(79)90549-2

[3] G. Wu, A.-M. Valente, H. L. Phillips, H. Wang, A. T. Wu, T. J. Renk, and P. Provencio, Thin Solid Films 489, 56 (2005).\
https://doi.org/10.1016/j.tsf.2005.04.099

## Nb3Sn

[1] K. Kwasnitza, A. V. Narlikar, H. U. Nissen, and D. Salathé, Cryogenics 20, 715 (1980).\
https://doi.org/10.1016/0011-2275(80)90026-0

[2]G. Rosaz, S. Calatroni, F. Leaux, F. Motschmann, Z. Mydlarz, M. Taborelli, and W. Vollenberg, Development of Nb3Sn Coatings by Magnetron Sputtering for SRF Cavities, Proceedings of the 17th International Conference on RF Superconductivity SRF2015, 4 pages (2015). https://doi.org/10.18429/JACOW-SRF2015-TUPB051


## Nb3Ge

[1] M. Akinaga and T. Ueno, Applied Surface Science 33–34, 1269 (1988). \
https://doi.org/10.1016/0169-4332(88)90444-8

[2] S. Mase, T. Fukami, and S. Takano, Phase Transitions 8, 187 (1987).\
https://doi.org/10.1080/01411598708209375


## Nb3Al

[1] P. Li, W. Zhang, W. Lin, G. Wang, X. Pan, Z. Yu, X. Yang, B. Sun, G. Yan, Y. Zhang, C. H. Cheng, Y. Feng, and Y. Zhao, Journal of Alloys and Compounds 742, 130 (2018).\
https://doi.org/10.1016/j.jallcom.2018.01.248


## MgB2

[1] S. K. Chen, A. Serquis, G. Serrano, K. A. Yates, M. G. Blamire, D. Guthrie, J. Cooper, H. Wang, S. Margadonna, and J. L. MacManus‐Driscoll, Advanced Functional Materials 18, 113 (2008).\
(https://doi.org/10.1002/adfm.200700254)

[2] J. Nagamatsu, N. Nakagawa, T. Muranaka, Y. Zenitani, and J. Akimitsu, Nature 410, 63 (2001).\
 (https://doi.org/10.1038/35065039)

[3] Y. Wang, C. Zhuang, X. Sun, X. Huang, Q. Fu, Z. Liao, D. Yu, and Q. Feng, Supercond. Sci. Technol. 22, 125015 (2009).\
(https://doi.org/10.1088%2F0953-2048%2F22%2F12%2F125015)

[4] K. A. Yates, Burnell, N. A. Stelmashenko, D.-J. Kang, H. N. Lee, B. Oh, and M. G. Blamire, Phys. Rev. B 68, 220512 (2003).\
(https://doi.org/10.1103/PhysRevB.68.220512)

[5] K. A. Yates, G. Burnell, Z. Lockman, A. Kursumovic, J. L. MacManus Driscoll, and M. G. Blamire, Journal of Physics and Chemistry of Solids 67, 333 (2006).\
(https://doi.org/10.1016/j.jpcs.2005.10.114)

[6] C. Terzioglu, A. Varilci, and I. Belenli, Investigation of Effect of Annealing Temperature on Mechanical Prop

File: curve_1_fit.dat
37.5,21.5856
37.52,22.3953
37.54,23.2506
37.56,24.1547
37.58,25.1115
37.6,26.125
37.62,27.1997
37.64,28.3404
37.66,29.5526
37.68,30.8421
37.7,32.2155
37.72,33.68
37.74,35.2435
37.76,36.9149
37.78,38.7039
37.8,40.6215
37.82,42.6796
37.84,44.8918
37.86,47.273
37.88,49.84
37.9,52.6117
37.92,55.6091
37.94,58.8558
37.96,62.3782
37.98,66.2063
38,70.3734
38.02,74.9174
38.04,79.8807
38.06,85.3108
38.08,91.2614
38.1,97.7924
38.12,104.971
38.14,112.87
38.16,121.573
38.18,131.167
38.2,141.75
38.22,153.42
38.24,166.281
38.26,180.43
38.28,195.954
38.3,212.915
38.32,231.338
38.34,251.182
38.36,272.316
38.38,294.486
38.4,317.277
38.42,340.088
38.44,362.117
38.46,382.383
38.48,399.785
38.5,413.217
38.52,421.718
38.54,424.63
38.56,421.718
38.58,413.217
38.6,399.785
38.62,382.383
38.64,362.117
38.66,340.088
38.68,317.277
38.7,294.486
38.72,272.316
38.74,251.182
38.76,231.338
38.78,212.915
38.8,195.954
38.82,180.43
38.84,166.281
38.86,153.42
38.88,141.75
38.9,131.167
38.92,121.573
38.94,112.87
38.96,104.971
38.98,97.7924
39,91.2614
39.02,85.3108
39.04,79.8807
39.06,74.9174
39.08,70.3734
39.1,66.2063
39.12,62.3782
39.14,58.8558
39.16,55.6091
39.18,52.6117
39.2,49.84
39.22,47.273
39.24,44.8918
39.26,42.6796
39.28,40.6215
39.3,38.7039
39.32,36.9149
39.34,35.2435
39.36,33.68
39.38,32.2155
39.4,30.8421
39.42,29.5526
39.44,28.3404
39.46,27.1997
39.48,26.125
39.5,25.1115
39.52,24.1547
39.54,23.2506
39.56,22.3953
39.58,21.5856
39.6,20.8183
39.62,20.0905
39.64,19.3997
39.66,18.7433
39.68,18.1193
39.7,17.5254
39.72,16.9599
39.74,16.421
39.76,15.907
39.78,15.4165
39.8,14.948
39.82,14.5004
39.84,14.0723
39.86,13.6627
39.88,13.2706
39.9,12.8949
39.92,12.5348
39.94,12.1894
39.96,11.858
39.98,11.5398
40,11.2341
40.02,10.9403
40.04,10.6578
40.06,10.386
40.08,10.1244
40.1,9.87242
40.12,9.6297
40.14,9.39575
40.16,9.17017
40.18,8.95256
40.2,8.74255
40.22,8.53979
40.24,8.34396
40.26,8.15475
40.28,7.97186
40.3,7.79502
40.32,7.62396
40.34,7.45844
40.36,7.29822
40.38,7.14308
40.4,6.99281
40.42,6.8472
40.44,6.70607
40.46,6.56924
40.48,6.43653
40.5,6.30779
40.52,6.18285
40.54,6.06157
40.56,5.9438
40.58,5.82942
40.6,5.71829
40.62,5.6103
40.64,5.50532
40.66,5.40326
40.68,5.30399
40.7,5.20742
40.72,5.11345
40.74,5.022
40.76,4.93297
40.78,4.84627
40.8,4.76184
40.82,4.67958
40.84,4.59943
40.86,4.52131
40.88,4.44516
40.9,4.37091
40.92,4.29849
40.94,4.22786
40.96,4.15895
40.98,4.0917
41,4.02607
41.02,3.962
41.04,3.89944
41.06,3.83835
41.08,3.77868
41.1,3.72038
41.12,3.66342
41.14,3.60775
41.16,3.55334
41.18,3.50015
41.2,3.44814
41.22,3.39728
41.24,3.34753
41.26,3.29886
41.28,3.25125
41.29,3.22782

File: curve_2_fit.dat
37.5,6.79358e-60
37.52,4.73157e-59
37.54,3.25085e-58
37.56,2.2033e-57
37.58,1.47311e-56
37.6,9.71587e-56
37.62,6.32139e-55
37.64,4.05722e-54
37.66,2.5688e-53
37.68,1.60441e-52
37.7,9.88522e-52
37.72,6.00817e-51
37.74,3.60232e-50
37.76,2.13063e-49
37.78,1.24313e-48
37.8,7.15505e-48
37.82,4.06249e-47
37.84,2.2754e-46
37.86,1.25721e-45
37.88,6.85238e-45
37.9,3.68435e-44
37.92,1.95418e-43
37.94,1.02248e-42
37.96,5.27749e-42
37.98,2.68712e-41
38,1.34968e-40
38.02,6.68742e-40
38.04,3.26868e-39
38.06,1.57605e-38
38.08,7.49641e-38
38.1,3.5174e-37
38.12,1.62807e-36
38.14,7.43381e-36
38.16,3.34838e-35
38.18,1.48779e-34
38.2,6.5213e-34
38.22,2.81975e-33
38.24,1.20274e-32
38.26,5.06081e-32
38.28,2.10064e-31
38.3,8.60138e-31
38.32,3.47432e-30
38.34,1.38438e-29
38.36,5.44161e-29
38.38,2.11e-28
38.4,8.07094e-28
38.42,3.04544e-27
38.44,1.1336e-26
38.46,4.16252e-26
38.48,1.50777e-25
38.5,5.38768e-25
38.52,1.89912e-24
38.54,6.60369e-24
38.56,2.2652e-23
38.58,7.66498e-23
38.6,2.55859e-22
38.62,8.4251e-22
38.64,2.73675e-21
38.66,8.76957e-21
38.68,2.77209e-20
38.7,8.64413e-20
38.72,2.65901e-19
38.74,8.0687e-19
38.76,2.41531e-18
38.78,7.13223e-18
38.8,2.07761e-17
38.82,5.97017e-17
38.84,1.69237e-16
38.86,4.73246e-16
38.88,1.30546e-15
38.9,3.55245e-15
38.92,9.53619e-15
38.94,2.52527e-14
38.96,6.59666e-14
38.98,1.69991e-13
39,4.32129e-13
39.02,1.08364e-12
39.04,2.68066e-12
39.06,6.54158e-12
39.08,1.57474e-11
39.1,3.73956e-11
39.12,8.76024e-11
39.14,2.0244e-10
39.16,4.6149e-10
39.18,1.0378e-09
39.2,2.30223e-09
39.22,5.03813e-09
39.24,1.08761e-08
39.26,2.31614e-08
39.28,4.86563e-08
39.3,1.00832e-07
39.32,2.06131e-07
39.34,4.15693e-07
39.36,8.26966e-07
39.38,1.62288e-06
39.4,3.14174e-06
39.42,5.99984e-06
39.44,1.1303e-05
39.46,2.10055e-05
39.48,3.85084e-05
39.5,6.96409e-05
39.52,0.000124239
39.54,0.000218643
39.56,0.000379576
39.58,0.00065005
39.6,0.00109819
39.62,0.00183019
39.64,0.00300884
39.66,0.00487963
39.68,0.00780655
39.7,0.0123202
39.72,0.0191804
39.74,0.0294567
39.76,0.0446269
39.78,0.066695
39.8,0.0983274
39.82,0.143002
39.84,0.20516
39.86,0.290354
39.88,0.405367
39.9,0.558283
39.92,0.758481
39.94,1.01653
39.96,1.34394
39.98,1.75277
40,2.25505
40.02,2.86201
40.04,3.58319
40.06,4.42542
40.08,5.39168
40.1,6.48006
40.12,7.68277
40.14,8.98549
40.16,10.3669
40.18,11.799
40.2,13.2472
40.22,14.6719
40.24,16.0301
40.26,17.277
40.28,18.369
40.3,19.2659
40.32,19.9332
40.34,20.3446
40.36,20.4837
40.38,20.3446
40.4,19.9332
40.42,19.2659
40.44,18.369
40.46,17.277
40.48,16.0301
40.5,14.6719
40.52,13.2472
40.54,11.799
40.56,10.3669
40.58,8.98549
40.6,7.68277
40.62,6.48006
40.64,5.39168
40.66,4.42542
40.68,3.58319
40.7,2.86201
40.72,2.25505
40.74,1.75277
40.76,1.34394
40.78,1.01653
40.8,0.758481
40.82,0.558283
40.84,0.405367
40.86,0.290354
40.88,0.20516
40.9,0.143002
40.92,0.0983274
40.94,0.066695
40.96,0.0446269
40.98,0.0294567
41,0.0191804
41.02,0.0123202
41.04,0.00780655
41.06,0.00487963
41.08,0.00300884
41.1,0.00183019
41.12,0.00109819
41.14,0.00065005
41.16,0.000379576
41.18,0.000218643
41.2,0.000124239
41.22,6.96409e-05
41.24,3.85084e-05
41.26,2.10055e-05
41.28,1.1303e-05
41.29,8.24909e-06

File: curve_total_fit.dat
37.5,143.136
37.52,143.945
37.54,144.801
37.56,145.705
37.58,146.662
37.6,147.675
37.62,148.75
37.64,149.89
37.66,151.103
37.68,152.392
37.7,153.765
37.72,155.23
37.74,156.794
37.76,158.465
37.78,160.254
37.8,162.171
37.82,164.23
37.84,166.442
37.86,168.823
37.88,171.39
37.9,174.162
37.92,177.159
37.94,180.406
37.96,183.928
37.98,187.756
38,191.923
38.02,196.467
38.04,201.431
38.06,206.861
38.08,212.811
38.1,219.342
38.12,226.521
38.14,234.42
38.16,243.123
38.18,252.717
38.2,263.3
38.22,274.97
38.24,287.831
38.26,301.98
38.28,317.504
38.3,334.465
38.32,352.888
38.34,372.732
38.36,393.866
38.38,416.036
38.4,438.827
38.42,461.638
38.44,483.667
38.46,503.933
38.48,521.335
38.5,534.767
38.52,543.268
38.54,546.18
38.56,543.268
38.58,534.767
38.6,521.335
38.62,503.933
38.64,483.667
38.66,461.638
38.68,438.827
38.7,416.036
38.72,393.866
38.74,372.732
38.76,352.888
38.78,334.465
38.8,317.504
38.82,301.98
38.84,287.831
38.86,274.97
38.88,263.3
38.9,252.717
38.92,243.123
38.94,234.42
38.96,226.521
38.98,219.342
39,212.811
39.02,206.861
39.04,201.431
39.06,196.467
39.08,191.923
39.1,187.756
39.12,183.928
39.14,180.406
39.16,177.159
39.18,174.162
39.2,171.39
39.22,168.823
39.24,166.442
39.26,164.23
39.28,162.171
39.3,160.254
39.32,158.465
39.34,156.794
39.36,155.23
39.38,153.765
39.4,152.392
39.42,151.103
39.44,149.89
39.46,148.75
39.48,147.675
39.5,146.662
39.52,145.705
39.54,144.801
39.56,143.946
39.58,143.136
39.6,142.369
39.62,141.642
39.64,140.953
39.66,140.298
39.68,139.677
39.7,139.088
39.72,138.529
39.74,138
39.76,137.502
39.78,137.033
39.8,136.596
39.82,136.193
39.84,135.827
39.86,135.503
39.88,135.226
39.9,135.003
39.92,134.843
39.94,134.756
39.96,134.752
39.98,134.843
40,135.039
40.02,135.352
40.04,135.791
40.06,136.361
40.08,137.066
40.1,137.902
40.12,138.862
40.14,139.931
40.16,141.087
40.18,142.302
40.2,143.54
40.22,144.762
40.24,145.924
40.26,146.982
40.28,147.891
40.3,148.611
40.32,149.107
40.34,149.353
40.36,149.332
40.38,149.038
40.4,148.476
40.42,147.663
40.44,146.625
40.46,145.396
40.48,144.017
40.5,142.53
40.52,140.98
40.54,139.411
40.56,137.861
40.58,136.365
40.6,134.951
40.62,133.64
40.64,132.447
40.66,131.379
40.68,130.437
40.7,129.619
40.72,128.919
40.74,128.325
40.76,127.827
40.78,127.413
40.8,127.07
40.82,126.788
40.84,126.555
40.86,126.362
40.88,126.2
40.9,126.064
40.92,125.947
40.94,125.845
40.96,125.754
40.98,125.671
41,125.595
41.02,125.524
41.04,125.457
41.06,125.393
41.08,125.332
41.1,125.272
41.12,125.215
41.14,125.158
41.16,125.104
41.18,125.05
41.2,124.998
41.22,124.947
41.24,124.898
41.26,124.849
41.28,124.801
41.29,124.778

File: xrd.csv
37.4126, 142.587
37.5932, 144.653
37.7791, 153.981
37.9494, 157.828
38.1667, 200
38.2901, 279.231
38.3274, 334.367
38.3473, 363.691
38.3708, 419.266
38.4717, 495.179
38.5351, 546.154
38.6052, 507.161
38.6969, 458.287
38.7515, 411.935
38.7957, 364.637
38.8484, 312.339
38.8897, 263.42
38.9568, 215.717
39.0804, 188.69
39.2277, 149.669
39.4045, 137.188
39.5979, 137.845
39.7749, 137.188
39.9601, 136.472
40.1293, 141.106
40.354, 150.28
40.5513, 134.895
40.709, 131.517
40.8939, 117.743
41.0731, 125.626
41.2583, 122.473