Folder: superconductor_data/boron_diamond/wang_2006/tc8.3/xrd

Note: boron_diamond/wang_2006/tc8.3/xrd/summary.md
## XRD Analysis

#### Curve 1 (220 Fundamental Peak)
**Type**: Lorentzian\
**amplitude:** 458.6\
**center** 91.3\
**width** 0.6


#### Curve 2 (311 Superlattice Peak)
**Type**: Gaussian\
**amplitude** 0.2\
**center** 97.7\
**Ïƒ** 0.1


## S<sup>2</sup>

#### Integrated Area of Peaks
**E<sub>220</sub>:** 412.01957\
**E<sub>311</sub>:** 0.03794\
**S<sup>2</sup>:** 0.2544\

## T<sub>C</sub>
**T<sub>C</sub>:**  8.3 K


### Reference
XRD spectrum from Figure 2a of Wang et al.\
T<sub>C</sub> from Figure 3a.



Z. L. Wang, Q. Luo, L. W. Liu, C. Y. Li, H. X. Yang, H. F. Yang, J. J. Li, X. Y. Lu, Z. S. Jin, L. Lu, and C. Z. Gu, Diamond and Related Materials 15, 659 (2006).\
https://doi.org/10.1016/j.diamond.2005.12.035

Note: README.md
[![DOI](https://zenodo.org/badge/DOI/10.5281/zenodo.3904782.svg)](https://doi.org/10.5281/zenodo.3904782)


Data Extraction Repository for
R.A Makin and S.M. Durbin, “Structural motifs: A potential pathway to superconductivity at standard temperature and pressure.”


### References


## YBCO

[1] C. Camerlingo, I. Delfino, and M. Lepore, Supercond. Sci. Technol. 15, 1606 (2002).\
    (https://doi.org/10.1088%2F0953-2048%2F15%2F11%2F321)


## Pb

[1] S. Bose, Size Effects in Nanostructured Superconductors, PhD Thesis, 2007.
https://www.tifr.res.in/~superconductivity/pdfs/sangitabose.pdf

## Nb

[1] S. Bose, Size Effects in Nanostructured Superconductors, PhD Thesis, 2007.
https://www.tifr.res.in/~superconductivity/pdfs/sangitabose.pdf

[2] C. T. Wu, Thin Solid Films 64, 103 (1979).\
https://doi.org/10.1016/0040-6090(79)90549-2

[3] G. Wu, A.-M. Valente, H. L. Phillips, H. Wang, A. T. Wu, T. J. Renk, and P. Provencio, Thin Solid Films 489, 56 (2005).\
https://doi.org/10.1016/j.tsf.2005.04.099

## Nb3Sn

[1] K. Kwasnitza, A. V. Narlikar, H. U. Nissen, and D. Salathé, Cryogenics 20, 715 (1980).\
https://doi.org/10.1016/0011-2275(80)90026-0

[2]G. Rosaz, S. Calatroni, F. Leaux, F. Motschmann, Z. Mydlarz, M. Taborelli, and W. Vollenberg, Development of Nb3Sn Coatings by Magnetron Sputtering for SRF Cavities, Proceedings of the 17th International Conference on RF Superconductivity SRF2015, 4 pages (2015). https://doi.org/10.18429/JACOW-SRF2015-TUPB051


## Nb3Ge

[1] M. Akinaga and T. Ueno, Applied Surface Science 33–34, 1269 (1988). \
https://doi.org/10.1016/0169-4332(88)90444-8

[2] S. Mase, T. Fukami, and S. Takano, Phase Transitions 8, 187 (1987).\
https://doi.org/10.1080/01411598708209375


## Nb3Al

[1] P. Li, W. Zhang, W. Lin, G. Wang, X. Pan, Z. Yu, X. Yang, B. Sun, G. Yan, Y. Zhang, C. H. Cheng, Y. Feng, and Y. Zhao, Journal of Alloys and Compounds 742, 130 (2018).\
https://doi.org/10.1016/j.jallcom.2018.01.248


## MgB2

[1] S. K. Chen, A. Serquis, G. Serrano, K. A. Yates, M. G. Blamire, D. Guthrie, J. Cooper, H. Wang, S. Margadonna, and J. L. MacManus‐Driscoll, Advanced Functional Materials 18, 113 (2008).\
(https://doi.org/10.1002/adfm.200700254)

[2] J. Nagamatsu, N. Nakagawa, T. Muranaka, Y. Zenitani, and J. Akimitsu, Nature 410, 63 (2001).\
 (https://doi.org/10.1038/35065039)

[3] Y. Wang, C. Zhuang, X. Sun, X. Huang, Q. Fu, Z. Liao, D. Yu, and Q. Feng, Supercond. Sci. Technol. 22, 125015 (2009).\
(https://doi.org/10.1088%2F0953-2048%2F22%2F12%2F125015)

[4] K. A. Yates, Burnell, N. A. Stelmashenko, D.-J. Kang, H. N. Lee, B. Oh, and M. G. Blamire, Phys. Rev. B 68, 220512 (2003).\
(https://doi.org/10.1103/PhysRevB.68.220512)

[5] K. A. Yates, G. Burnell, Z. Lockman, A. Kursumovic, J. L. MacManus Driscoll, and M. G. Blamire, Journal of Physics and Chemistry of Solids 67, 333 (2006).\
(https://doi.org/10.1016/j.jpcs.2005.10.114)

[6] C. Terzioglu, A. Varilci, and I. Belenli, Investigation of Effect of Annealing Temperature on Mechanical Prop

File: curve_1_fit.dat
88.0,3.43742
88.04,3.52075
88.08,3.60715
88.12,3.69675
88.16,3.78973
88.2,3.88625
88.24,3.98649
88.28,4.09065
88.32,4.19893
88.36,4.31156
88.4,4.42876
88.44,4.5508
88.48,4.67793
88.52,4.81044
88.56,4.94864
88.6,5.09286
88.64,5.24346
88.68,5.40081
88.72,5.56531
88.76,5.73742
88.8,5.9176
88.84,6.10637
88.88,6.30427
88.92,6.5119
88.96,6.7299
89,6.95899
89.04,7.1999
89.08,7.45348
89.12,7.72061
89.16,8.00228
89.2,8.29955
89.24,8.61359
89.28,8.94567
89.32,9.2972
89.36,9.66971
89.4,10.0649
89.44,10.4846
89.48,10.9309
89.52,11.4061
89.56,11.9126
89.6,12.4533
89.64,13.0313
89.68,13.6501
89.72,14.3136
89.76,15.026
89.8,15.7923
89.84,16.618
89.88,17.5093
89.92,18.4732
89.96,19.5177
90,20.6519
90.04,21.8862
90.08,23.2324
90.12,24.7043
90.16,26.3176
90.2,28.0907
90.24,30.0446
90.28,32.2044
90.32,34.5989
90.36,37.2623
90.4,40.2351
90.44,43.565
90.48,47.309
90.52,51.5354
90.56,56.3262
90.6,61.7801
90.64,68.0168
90.68,75.1814
90.72,83.4504
90.76,93.038
90.8,104.204
90.84,117.263
90.88,132.586
90.92,150.607
90.96,171.808
91,196.688
91.04,225.68
91.08,259
91.12,296.379
91.16,336.676
91.2,377.433
91.24,414.62
91.28,443.004
91.32,457.48
91.36,455.049
91.4,436.234
91.44,404.82
91.48,366.136
91.52,325.17
91.56,285.509
91.6,249.202
91.64,217.098
91.68,189.296
91.72,165.499
91.76,145.242
91.8,128.027
91.84,113.381
91.88,100.89
91.92,90.1961
91.96,81.0033
92,73.0646
92.04,66.1771
92.08,60.1739
92.12,54.9174
92.16,50.2945
92.2,46.2112
92.24,42.5899
92.28,39.3658
92.32,36.4844
92.36,33.9003
92.4,31.575
92.44,29.4758
92.48,27.5751
92.52,25.8489
92.56,24.2771
92.6,22.842
92.64,21.5285
92.68,20.3235
92.72,19.2155
92.76,18.1945
92.8,17.2518
92.84,16.3796
92.88,15.5712
92.92,14.8205
92.96,14.1224
93,13.4719
93.04,12.8649
93.08,12.2977
93.12,11.7669
93.16,11.2695
93.2,10.8026
93.24,10.364
93.28,9.95143
93.32,9.5628
93.36,9.19636
93.4,8.85044
93.44,8.52357
93.48,8.21437
93.52,7.92159
93.56,7.64411
93.6,7.38089
93.64,7.13095
93.68,6.89344
93.72,6.66755
93.76,6.45253
93.8,6.24769
93.84,6.05242
93.88,5.86612
93.92,5.68826
93.96,5.51833
94,5.35588
94.04,5.20047
94.08,5.0517
94.12,4.90921
94.16,4.77264
94.2,4.64167
94.24,4.516
94.28,4.39535
94.32,4.27946
94.36,4.16807
94.4,4.06097
94.44,3.95793
94.48,3.85875
94.52,3.76325
94.56,3.67123
94.6,3.58255
94.64,3.49703
94.68,3.41453
94.72,3.3349
94.76,3.25803
94.8,3.18377
94.84,3.11202
94.88,3.04266
94.92,2.97559
94.96,2.91071
95,2.84793
95.04,2.78715
95.08,2.72829
95.12,2.67127
95.16,2.61602
95.2,2.56246
95.24,2.51053
95.28,2.46016
95.32,2.41128
95.36,2.36385
95.4,2.3178
95.44,2.27308
95.48,2.22963
95.52,2.18743
95.56,2.1464
95.6,2.10652
95.64,2.06774
95.68,2.03001
95.72,1.99331
95.76,1.9576
95.8,1.92283
95.84,1.88898
95.88,1.85602
95.92,1.82391
95.96,1.79262
96,1.76213
96.04,1.73241
96.08,1.70344
96.12,1.67519
96.16,1.64763
96.2,1.62075
96.24,1.59452
96.28,1.56892
96.32,1.54393
96.36,1.51953
96.4,1.4957
96.44,1.47243
96.48,1.4497
96.52,1.42749
96.56,1.40579
96.6,1.38458
96.64,1.36384
96.68,1.34357
96.72,1.32374
96.76,1.30435
96.8,1.28538
96.84,1.26682
96.88,1.24866
96.92,1.23089
96.96,1.21349
97,1.19646
97.04,1.17979
97.08,1.16346
97.12,1.14747
97.16,1.13181
97.2,1.11646
97.24,1.10142
97.28,1.08669
97.32,1.07225
97.36,1.05809
97.4,1.04421
97.44,1.03061
97.48,1.01726
97.52,1.00418
97.56,0.991344
97.6,0.978754
97.64,0.966401
97.68,0.954282
97.72,0.942388
97.76,0.930716
97.8,0.919258
97.84,0.908011
97.88,0.896969
97.92,0.886127
97.96,0.87548
98,0.865024
98.04,0.854754
98.08,0.844666
98.12,0.834755
98.16,0.825017
98.2,0.815449
98.24,0.806046
98.28,0.796805
98.32,0.787722
98.36,0.778793
98.4,0.770015
98.44,0.761384
98.48,0.752898
98.52,0.744552
98.56,0.736345
98.6,0.728272
98.64,0.720332
98.68,0.71252
98.72,0.704835
98.76,0.697273
98.8,0.689833
98.84,0.682511
98.88,0.675304
98.92,0.668211
98.96,0.66123
99,0.654357
99.04,0.64759
99.08,0.640928
99.12,0.634369
99.16,0.627909
99.2,0.621548
99.24,0.615282
99.28,0.609111
99.32,0.603032
99.36,0.597044
99.4,0.591144
99.44,0.585332
99.48,0.579605
99.52,0.573961
99.56,0.568399
99.6,0.562918
99.64,0.557515
99.68,0.55219
99.72,0.546941
99.76,0.541767
99.8,0.536665
99.84,0.531635
99.88,0.526676
99.92,0.521785
99.96,0.516962
99.99,0.513389

File: curve_2_fit.dat
88.0,0.0
88.04,0.0
88.08,0.0
88.12,0.0
88.16,0.0
88.2,0.0
88.24,0.0
88.28,0.0
88.32,0.0
88.36,0.0
88.4,0.0
88.44,0.0
88.48,0.0
88.52,0.0
88.56,0.0
88.6,0.0
88.64,0.0
88.68,0.0
88.72,0.0
88.76,0.0
88.8,0.0
88.84,0.0
88.88,0.0
88.92,0.0
88.96,0.0
89,0.0
89.04,0.0
89.08,0.0
89.12,0.0
89.16,0.0
89.2,0.0
89.24,0.0
89.28,0.0
89.32,0.0
89.36,0.0
89.4,0.0
89.44,0.0
89.48,0.0
89.52,0.0
89.56,0.0
89.6,0.0
89.64,0.0
89.68,0.0
89.72,0.0
89.76,0.0
89.8,0.0
89.84,0.0
89.88,0.0
89.92,0.0
89.96,0.0
90,0.0
90.04,0.0
90.08,0.0
90.12,0.0
90.16,0.0
90.2,0.0
90.24,0.0
90.28,0.0
90.32,0.0
90.36,0.0
90.4,0.0
90.44,0.0
90.48,0.0
90.52,0.0
90.56,0.0
90.6,0.0
90.64,0.0
90.68,0.0
90.72,0.0
90.76,0.0
90.8,0.0
90.84,0.0
90.88,0.0
90.92,0.0
90.96,0.0
91,0.0
91.04,0.0
91.08,0.0
91.12,0.0
91.16,0.0
91.2,0.0
91.24,0.0
91.28,0.0
91.32,0.0
91.36,0.0
91.4,0.0
91.44,0.0
91.48,0.0
91.52,0.0
91.56,0.0
91.6,0.0
91.64,0.0
91.68,0.0
91.72,0.0
91.76,0.0
91.8,0.0
91.84,0.0
91.88,0.0
91.92,0.0
91.96,0.0
92,0.0
92.04,0.0
92.08,0.0
92.12,0.0
92.16,0.0
92.2,0.0
92.24,0.0
92.28,0.0
92.32,0.0
92.36,0.0
92.4,0.0
92.44,0.0
92.48,0.0
92.52,0.0
92.56,0.0
92.6,0.0
92.64,0.0
92.68,0.0
92.72,0.0
92.76,0.0
92.8,0.0
92.84,0.0
92.88,0.0
92.92,0.0
92.96,0.0
93,0.0
93.04,0.0
93.08,0.0
93.12,0.0
93.16,0.0
93.2,0.0
93.24,0.0
93.28,0.0
93.32,0.0
93.36,0.0
93.4,0.0
93.44,0.0
93.48,0.0
93.52,0.0
93.56,0.0
93.6,0.0
93.64,0.0
93.68,0.0
93.72,0.0
93.76,0.0
93.8,0.0
93.84,0.0
93.88,0.0
93.92,0.0
93.96,0.0
94,0.0
94.04,0.0
94.08,0.0
94.12,0.0
94.16,0.0
94.2,0.0
94.24,0.0
94.28,0.0
94.32,0.0
94.36,0.0
94.4,0.0
94.44,0.0
94.48,0.0
94.52,5.38093e-317
94.56,3.92768e-309
94.6,2.28136e-301
94.64,1.05446e-293
94.68,3.87833e-286
94.72,1.13511e-278
94.76,2.64369e-271
94.8,4.89962e-264
94.84,7.22591e-257
94.88,8.48011e-250
94.92,7.91935e-243
94.96,5.88513e-236
95,3.48018e-229
95.04,1.63767e-222
95.08,6.13238e-216
95.12,1.82731e-209
95.16,4.33283e-203
95.2,8.17545e-197
95.24,1.22752e-190
95.28,1.46665e-184
95.32,1.39445e-178
95.36,1.05501e-172
95.4,6.35173e-167
95.44,3.04302e-161
95.48,1.1601e-155
95.52,3.51938e-150
95.56,8.49601e-145
95.6,1.63209e-139
95.64,2.49488e-134
95.68,3.03483e-129
95.72,2.93765e-124
95.76,2.26278e-119
95.8,1.38696e-114
95.84,6.76496e-110
95.88,2.6257e-105
95.92,8.10967e-101
95.96,1.99315e-96
96,3.89813e-92
96.04,6.06668e-88
96.08,7.5132e-84
96.12,7.40419e-80
96.16,5.80642e-76
96.2,3.62342e-72
96.24,1.79932e-68
96.28,7.1101e-65
96.32,2.23574e-61
96.36,5.59432e-58
96.4,1.11391e-54
96.44,1.76496e-51
96.48,2.22534e-48
96.52,2.23274e-45
96.56,1.78261e-42
96.6,1.13254e-39
96.64,5.72575e-37
96.68,2.3035e-34
96.72,7.37434e-32
96.76,1.87861e-29
96.8,3.80828e-27
96.84,6.14328e-25
96.88,7.88588e-23
96.92,8.05525e-21
96.96,6.54767e-19
97,4.2352e-17
97.04,2.17991e-15
97.08,8.92859e-14
97.12,2.91009e-12
97.16,7.54758e-11
97.2,1.55772e-09
97.24,2.55828e-08
97.28,3.34338e-07
97.32,3.47699e-06
97.36,2.87739e-05
97.4,0.000189485
97.44,0.00099295
97.48,0.00414057
97.52,0.0137395
97.56,0.0362795
97.6,0.0762307
97.64,0.127461
97.68,0.169591
97.72,0.17956
97.76,0.151284
97.8,0.101428
97.84,0.0541126
97.88,0.022973
97.92,0.00776101
97.96,0.00208639
98,0.000446327
98.04,7.59782e-05
98.08,1.02921e-05
98.12,1.10942e-06
98.16,9.51633e-08
98.2,6.49562e-09
98.24,3.52818e-10
98.28,1.52496e-11
98.32,5.24502e-13
98.36,1.43553e-14
98.4,3.1265e-16
98.44,5.41855e-18
98.48,7.47284e-20
98.52,8.20101e-22
98.56,7.16189e-24
98.6,4.977e-26
98.64,2.75223e-28
98.68,1.21111e-30
98.72,4.2409e-33
98.76,1.18172e-35
98.8,2.62027e-38
98.84,4.62337e-41
98.88,6.49157e-44
98.92,7.25303e-47
98.96,6.44864e-50
99,4.56243e-53
99.04,2.56863e-56
99.08,1.15077e-59
99.12,4.10253e-63
99.16,1.16384e-66
99.2,2.62734e-70
99.24,4.71972e-74
99.28,6.74676e-78
99.32,7.67456e-82
99.36,6.94689e-86
99.4,5.00387e-90
99.44,2.86814e-94
99.48,1.3082e-98
99.52,4.74817e-103
99.56,1.37138e-107
99.6,3.15186e-112
99.64,5.76443e-117
99.68,8.38926e-122
99.72,9.7156e-127
99.76,8.95354e-132
99.8,6.56597e-137
99.84,3.83161e-142
99.88,1.77928e-147
99.92,6.57482e-153
99.96,1.93332e-158
99.99,1.18169e-162

File: curve_total_fit.dat
88.0,104.437
88.04,104.521
88.08,104.607
88.12,104.697
88.16,104.79
88.2,104.886
88.24,104.986
88.28,105.091
88.32,105.199
88.36,105.312
88.4,105.429
88.44,105.551
88.48,105.678
88.52,105.81
88.56,105.949
88.6,106.093
88.64,106.243
88.68,106.401
88.72,106.565
88.76,106.737
88.8,106.918
88.84,107.106
88.88,107.304
88.92,107.512
88.96,107.73
89,107.959
89.04,108.2
89.08,108.453
89.12,108.721
89.16,109.002
89.2,109.3
89.24,109.614
89.28,109.946
89.32,110.297
89.36,110.67
89.4,111.065
89.44,111.485
89.48,111.931
89.52,112.406
89.56,112.913
89.6,113.453
89.64,114.031
89.68,114.65
89.72,115.314
89.76,116.026
89.8,116.792
89.84,117.618
89.88,118.509
89.92,119.473
89.96,120.518
90,121.652
90.04,122.886
90.08,124.232
90.12,125.704
90.16,127.318
90.2,129.091
90.24,131.045
90.28,133.204
90.32,135.599
90.36,138.262
90.4,141.235
90.44,144.565
90.48,148.309
90.52,152.535
90.56,157.326
90.6,162.78
90.64,169.017
90.68,176.181
90.72,184.45
90.76,194.038
90.8,205.204
90.84,218.263
90.88,233.586
90.92,251.607
90.96,272.808
91,297.688
91.04,326.68
91.08,360
91.12,397.379
91.16,437.676
91.2,478.433
91.24,515.62
91.28,544.004
91.32,558.48
91.36,556.049
91.4,537.234
91.44,505.82
91.48,467.136
91.52,426.17
91.56,386.509
91.6,350.202
91.64,318.098
91.68,290.296
91.72,266.499
91.76,246.242
91.8,229.027
91.84,214.381
91.88,201.89
91.92,191.196
91.96,182.003
92,174.065
92.04,167.177
92.08,161.174
92.12,155.917
92.16,151.294
92.2,147.211
92.24,143.59
92.28,140.366
92.32,137.484
92.36,134.9
92.4,132.575
92.44,130.476
92.48,128.575
92.52,126.849
92.56,125.277
92.6,123.842
92.64,122.529
92.68,121.323
92.72,120.215
92.76,119.195
92.8,118.252
92.84,117.38
92.88,116.571
92.92,115.821
92.96,115.122
93,114.472
93.04,113.865
93.08,113.298
93.12,112.767
93.16,112.269
93.2,111.803
93.24,111.364
93.28,110.951
93.32,110.563
93.36,110.196
93.4,109.85
93.44,109.524
93.48,109.214
93.52,108.922
93.56,108.644
93.6,108.381
93.64,108.131
93.68,107.893
93.72,107.668
93.76,107.453
93.8,107.248
93.84,107.052
93.88,106.866
93.92,106.688
93.96,106.518
94,106.356
94.04,106.2
94.08,106.052
94.12,105.909
94.16,105.773
94.2,105.642
94.24,105.516
94.28,105.395
94.32,105.279
94.36,105.168
94.4,105.061
94.44,104.958
94.48,104.859
94.52,104.763
94.56,104.671
94.6,104.583
94.64,104.497
94.68,104.415
94.72,104.335
94.76,104.258
94.8,104.184
94.84,104.112
94.88,104.043
94.92,103.976
94.96,103.911
95,103.848
95.04,103.787
95.08,103.728
95.12,103.671
95.16,103.616
95.2,103.562
95.24,103.511
95.28,103.46
95.32,103.411
95.36,103.364
95.4,103.318
95.44,103.273
95.48,103.23
95.52,103.187
95.56,103.146
95.6,103.107
95.64,103.068
95.68,103.03
95.72,102.993
95.76,102.958
95.8,102.923
95.84,102.889
95.88,102.856
95.92,102.824
95.96,102.793
96,102.762
96.04,102.732
96.08,102.703
96.12,102.675
96.16,102.648
96.2,102.621
96.24,102.595
96.28,102.569
96.32,102.544
96.36,102.52
96.4,102.496
96.44,102.472
96.48,102.45
96.52,102.427
96.56,102.406
96.6,102.385
96.64,102.364
96.68,102.344
96.72,102.324
96.76,102.304
96.8,102.285
96.84,102.267
96.88,102.249
96.92,102.231
96.96,102.213
97,102.196
97.04,102.18
97.08,102.163
97.12,102.147
97.16,102.132
97.2,102.116
97.24,102.101
97.28,102.087
97.32,102.072
97.36,102.058
97.4,102.044
97.44,102.032
97.48,102.021
97.52,102.018
97.56,102.028
97.6,102.055
97.64,102.094
97.68,102.124
97.72,102.122
97.76,102.082
97.8,102.021
97.84,101.962
97.88,101.92
97.92,101.894
97.96,101.878
98,101.865
98.04,101.855
98.08,101.845
98.12,101.835
98.16,101.825
98.2,101.815
98.24,101.806
98.28,101.797
98.32,101.788
98.36,101.779
98.4,101.77
98.44,101.761
98.48,101.753
98.52,101.745
98.56,101.736
98.6,101.728
98.64,101.72
98.68,101.713
98.72,101.705
98.76,101.697
98.8,101.69
98.84,101.683
98.88,101.675
98.92,101.668
98.96,101.661
99,101.654
99.04,101.648
99.08,101.641
99.12,101.634
99.16,101.628
99.2,101.622
99.24,101.615
99.28,101.609
99.32,101.603
99.36,101.597
99.4,101.591
99.44,101.585
99.48,101.58
99.52,101.574
99.56,101.568
99.6,101.563
99.64,101.558
99.68,101.552
99.72,101.547
99.76,101.542
99.8,101.537
99.84,101.532
99.88,101.527
99.92,101.522
99.96,101.517
99.99,101.513

File: xrd.csv
88.5233, 93.7108
89.1774, 88.473
89.9096, 102.724
90.8943, 185.048
91.1466, 268.158
91.3344, 574.165
91.8818, 265.532
91.98, 187.25
92.5608, 120.801
93.5655, 99.1909
94.255, 100.365
94.919, 98.9113
95.6689, 97.0771
96.4285, 98.0165
97.3184, 99.622
97.7264, 101.67
98.1782, 101.488
98.9359, 97.7416
99.6098, 99.1746
100.332, 94.5719