Folder: superconductor_data/mgb2/chen_2008/mg_0.95/xrd

Note: mgb2/chen_2008/mg_0.95/xrd/summary.md
## XRD Analysis

#### Curve 1 (001 Peak)
**Type**: Lorentzian\
**amplitude** 1.787e-2\
**center**: 25.1\
**σ**: 0.318


**Amplitude of (200) Peak:** 0.122\
**E<sub>200</sub>:** 0.07288258157599169


## T<sub>C</sub>
**T<sub>C</sub>:**  37.5 K





### Reference
XRD from Figure 10 of Chen et al.\
T<sub>C</sub> given in Table 1 of Chen et al.


S. K. Chen, A. Serquis, G. Serrano, K. A. Yates, M. G. Blamire, D. Guthrie, J. Cooper, H. Wang, S. Margadonna, and J. L. MacManus‐Driscoll, Advanced Functional Materials 18, 113 (2008).


(https://doi.org/10.1002/adfm.200700254)

Note: README.md
[![DOI](https://zenodo.org/badge/DOI/10.5281/zenodo.3904782.svg)](https://doi.org/10.5281/zenodo.3904782)


Data Extraction Repository for
R.A Makin and S.M. Durbin, “Structural motifs: A potential pathway to superconductivity at standard temperature and pressure.”


### References


## YBCO

[1] C. Camerlingo, I. Delfino, and M. Lepore, Supercond. Sci. Technol. 15, 1606 (2002).\
    (https://doi.org/10.1088%2F0953-2048%2F15%2F11%2F321)


## Pb

[1] S. Bose, Size Effects in Nanostructured Superconductors, PhD Thesis, 2007.
https://www.tifr.res.in/~superconductivity/pdfs/sangitabose.pdf

## Nb

[1] S. Bose, Size Effects in Nanostructured Superconductors, PhD Thesis, 2007.
https://www.tifr.res.in/~superconductivity/pdfs/sangitabose.pdf

[2] C. T. Wu, Thin Solid Films 64, 103 (1979).\
https://doi.org/10.1016/0040-6090(79)90549-2

[3] G. Wu, A.-M. Valente, H. L. Phillips, H. Wang, A. T. Wu, T. J. Renk, and P. Provencio, Thin Solid Films 489, 56 (2005).\
https://doi.org/10.1016/j.tsf.2005.04.099

## Nb3Sn

[1] K. Kwasnitza, A. V. Narlikar, H. U. Nissen, and D. Salathé, Cryogenics 20, 715 (1980).\
https://doi.org/10.1016/0011-2275(80)90026-0

[2]G. Rosaz, S. Calatroni, F. Leaux, F. Motschmann, Z. Mydlarz, M. Taborelli, and W. Vollenberg, Development of Nb3Sn Coatings by Magnetron Sputtering for SRF Cavities, Proceedings of the 17th International Conference on RF Superconductivity SRF2015, 4 pages (2015). https://doi.org/10.18429/JACOW-SRF2015-TUPB051


## Nb3Ge

[1] M. Akinaga and T. Ueno, Applied Surface Science 33–34, 1269 (1988). \
https://doi.org/10.1016/0169-4332(88)90444-8

[2] S. Mase, T. Fukami, and S. Takano, Phase Transitions 8, 187 (1987).\
https://doi.org/10.1080/01411598708209375


## Nb3Al

[1] P. Li, W. Zhang, W. Lin, G. Wang, X. Pan, Z. Yu, X. Yang, B. Sun, G. Yan, Y. Zhang, C. H. Cheng, Y. Feng, and Y. Zhao, Journal of Alloys and Compounds 742, 130 (2018).\
https://doi.org/10.1016/j.jallcom.2018.01.248


## MgB2

[1] S. K. Chen, A. Serquis, G. Serrano, K. A. Yates, M. G. Blamire, D. Guthrie, J. Cooper, H. Wang, S. Margadonna, and J. L. MacManus‐Driscoll, Advanced Functional Materials 18, 113 (2008).\
(https://doi.org/10.1002/adfm.200700254)

[2] J. Nagamatsu, N. Nakagawa, T. Muranaka, Y. Zenitani, and J. Akimitsu, Nature 410, 63 (2001).\
 (https://doi.org/10.1038/35065039)

[3] Y. Wang, C. Zhuang, X. Sun, X. Huang, Q. Fu, Z. Liao, D. Yu, and Q. Feng, Supercond. Sci. Technol. 22, 125015 (2009).\
(https://doi.org/10.1088%2F0953-2048%2F22%2F12%2F125015)

[4] K. A. Yates, Burnell, N. A. Stelmashenko, D.-J. Kang, H. N. Lee, B. Oh, and M. G. Blamire, Phys. Rev. B 68, 220512 (2003).\
(https://doi.org/10.1103/PhysRevB.68.220512)

[5] K. A. Yates, G. Burnell, Z. Lockman, A. Kursumovic, J. L. MacManus Driscoll, and M. G. Blamire, Journal of Physics and Chemistry of Solids 67, 333 (2006).\
(https://doi.org/10.1016/j.jpcs.2005.10.114)

[6] C. Terzioglu, A. Varilci, and I. Belenli, Investigation of Effect of Annealing Temperature on Mechanical Prop

File: curve_1_fit.dat
24.0,0.000362072
24.01,0.000368575
24.02,0.000375254
24.03,0.000382114
24.04,0.000389163
24.05,0.000396407
24.06,0.000403853
24.07,0.00041151
24.08,0.000419385
24.09,0.000427486
24.1,0.000435822
24.11,0.000444402
24.12,0.000453236
24.13,0.000462334
24.14,0.000471706
24.15,0.000481363
24.16,0.000491316
24.17,0.000501579
24.18,0.000512164
24.19,0.000523083
24.2,0.000534352
24.21,0.000545985
24.22,0.000557998
24.23,0.000570407
24.24,0.000583231
24.25,0.000596486
24.26,0.000610193
24.27,0.000624373
24.28,0.000639046
24.29,0.000654235
24.3,0.000669966
24.31,0.000686263
24.32,0.000703154
24.33,0.000720667
24.34,0.000738833
24.35,0.000757685
24.36,0.000777256
24.37,0.000797583
24.38,0.000818705
24.39,0.000840663
24.4,0.000863501
24.41,0.000887266
24.42,0.000912008
24.43,0.00093778
24.44,0.000964638
24.45,0.000992644
24.46,0.00102186
24.47,0.00105236
24.48,0.00108422
24.49,0.00111751
24.5,0.00115232
24.51,0.00118874
24.52,0.00122688
24.53,0.00126683
24.54,0.00130872
24.55,0.00135265
24.56,0.00139878
24.57,0.00144723
24.58,0.00149816
24.59,0.00155175
24.6,0.00160816
24.61,0.00166759
24.62,0.00173027
24.63,0.0017964
24.64,0.00186625
24.65,0.00194009
24.66,0.0020182
24.67,0.00210091
24.68,0.00218857
24.69,0.00228155
24.7,0.00238027
24.71,0.00248519
24.72,0.00259679
24.73,0.00271561
24.74,0.00284225
24.75,0.00297735
24.76,0.00312162
24.77,0.00327582
24.78,0.00344079
24.79,0.00361746
24.8,0.00380682
24.81,0.00400997
24.82,0.0042281
24.83,0.00446249
24.84,0.00471453
24.85,0.00498572
24.86,0.00527764
24.87,0.005592
24.88,0.00593056
24.89,0.00629517
24.9,0.00668769
24.91,0.00710995
24.92,0.00756372
24.93,0.00805056
24.94,0.00857172
24.95,0.00912799
24.96,0.00971947
24.97,0.0103453
24.98,0.0110034
24.99,0.0116901
25,0.0123998
25.01,0.0131245
25.02,0.0138536
25.03,0.0145739
25.04,0.0152693
25.05,0.0159213
25.06,0.0165099
25.07,0.0170145
25.08,0.0174157
25.09,0.0176964
25.1,0.0178443
25.11,0.0178524
25.12,0.0177203
25.13,0.0174543
25.14,0.0170662
25.15,0.0165725
25.16,0.0159925
25.17,0.0153468
25.18,0.0146554
25.19,0.0139371
25.2,0.0132083
25.21,0.0124825
25.22,0.0117706
25.23,0.011081
25.24,0.0104193
25.25,0.00978967
25.26,0.00919419
25.27,0.00863386
25.28,0.00810869
25.29,0.00761796
25.3,0.00716047
25.31,0.00673467
25.32,0.00633883
25.33,0.00597111
25.34,0.00562964
25.35,0.0053126
25.36,0.00501818
25.37,0.00474469
25.38,0.00449053
25.39,0.00425419
25.4,0.00403426
25.41,0.00382945
25.42,0.00363855
25.43,0.00346048
25.44,0.00329421
25.45,0.00313882
25.46,0.00299345
25.47,0.00285734
25.48,0.00272976
25.49,0.00261007
25.5,0.00249766
25.51,0.00239201
25.52,0.0022926
25.53,0.00219898
25.54,0.00211073
25.55,0.00202747
25.56,0.00194884
25.57,0.00187453
25.58,0.00180424
25.59,0.00173769
25.6,0.00167463
25.61,0.00161483
25.62,0.00155808
25.63,0.00150418
25.64,0.00145295
25.65,0.00140422
25.66,0.00135784
25.67,0.00131366
25.68,0.00127155
25.69,0.00123138
25.7,0.00119304
25.71,0.00115642
25.72,0.00112143
25.73,0.00108797
25.74,0.00105595
25.75,0.0010253
25.76,0.000995939
25.77,0.000967797
25.78,0.00094081
25.79,0.000914916
25.8,0.000890059
25.81,0.000866184
25.82,0.000843242
25.83,0.000821185
25.84,0.000799969
25.85,0.000779553
25.86,0.000759897
25.87,0.000740964
25.88,0.000722721
25.89,0.000705135
25.9,0.000688174
25.91,0.00067181
25.92,0.000656015
25.93,0.000640765
25.94,0.000626033
25.95,0.000611798
25.96,0.000598038
25.97,0.000584732
25.98,0.00057186
25.99,0.000559404
26,0.000547346
26.01,0.00053567
26.02,0.00052436
26.03,0.000513401
26.04,0.000502779
26.05,0.00049248
26.06,0.000482491
26.07,0.000472801
26.08,0.000463397
26.09,0.000454268
26.1,0.000445404
26.11,0.000436796
26.12,0.000428432
26.13,0.000420304
26.14,0.000412404
26.15,0.000404722
26.16,0.000397252
26.17,0.000389985
26.18,0.000382914
26.19,0.000376033
26.2,0.000369334
26.21,0.000362811
26.22,0.000356458
26.23,0.00035027
26.24,0.00034424
26.25,0.000338364
26.26,0.000332636
26.27,0.000327052
26.28,0.000321606
26.29,0.000316294
26.3,0.000311111
26.31,0.000306055
26.32,0.00030112
26.33,0.000296303
26.34,0.0002916
26.35,0.000287007
26.36,0.000282521
26.37,0.000278139
26.38,0.000273858
26.39,0.000269675
26.4,0.000265586
26.41,0.000261589
26.42,0.000257681
26.43,0.000253859
26.44,0.000250122
26.45,0.000246466
26.46,0.000242889
26.47,0.00023939
26.48,0.000235965
26.49,0.000232612
26.5,0.000229331
26.51,0.000226118
26.52,0.000222971
26.53,0.00021989
26.54,0.000216872
26.55,0.000213915
26.56,0.000211018
26.57,0.00020818
26.58,0.000205398
26.59,0.000202671
26.6,0.000199998
26.61,0.000197377
26.62,0.000194808
26.63,0.000192288
26.64,0.000189816
26.65,0.000187392
26.66,0.000185013
26.67,0.00018268
26.68,0.00018039
26.69,0.000178143
26.7,0.000175937
26.71,0.000173772
26.72,0.000171646
26.73,0.00016956
26.74,0.00016751
26.75,0.000165498
26.76,0.000163522
26.77,0.000161581
26.78,0.000159673
26.79,0.0001578
26.8,0.000155959
26.81,0.00015415
26.82,0.000152372
26.83,0.000150625
26.84,0.000148908
26.85,0.000147219
26.86,0.00014556
26.87,0.000143928
26.88,0.000142323
26.89,0.000140745
26.9,0.000139192
26.91,0.000137666
26.92,0.000136164
26.93,0.000134687
26.94,0.000133233
26.95,0.000131803
26.96,0.000130396
26.97,0.000129011
26.98,0.000127648
26.99,0.000126306

File: curve_total_fit.dat
24.0,0.00436207
24.01,0.00436858
24.02,0.00437525
24.03,0.00438211
24.04,0.00438916
24.05,0.00439641
24.06,0.00440385
24.07,0.00441151
24.08,0.00441938
24.09,0.00442749
24.1,0.00443582
24.11,0.0044444
24.12,0.00445324
24.13,0.00446233
24.14,0.00447171
24.15,0.00448136
24.16,0.00449132
24.17,0.00450158
24.18,0.00451216
24.19,0.00452308
24.2,0.00453435
24.21,0.00454599
24.22,0.004558
24.23,0.00457041
24.24,0.00458323
24.25,0.00459649
24.26,0.00461019
24.27,0.00462437
24.28,0.00463905
24.29,0.00465424
24.3,0.00466997
24.31,0.00468626
24.32,0.00470315
24.33,0.00472067
24.34,0.00473883
24.35,0.00475768
24.36,0.00477726
24.37,0.00479758
24.38,0.0048187
24.39,0.00484066
24.4,0.0048635
24.41,0.00488727
24.42,0.00491201
24.43,0.00493778
24.44,0.00496464
24.45,0.00499264
24.46,0.00502186
24.47,0.00505236
24.48,0.00508422
24.49,0.00511751
24.5,0.00515232
24.51,0.00518874
24.52,0.00522688
24.53,0.00526683
24.54,0.00530872
24.55,0.00535265
24.56,0.00539878
24.57,0.00544723
24.58,0.00549816
24.59,0.00555175
24.6,0.00560816
24.61,0.00566759
24.62,0.00573027
24.63,0.0057964
24.64,0.00586625
24.65,0.00594009
24.66,0.0060182
24.67,0.00610091
24.68,0.00618857
24.69,0.00628155
24.7,0.00638027
24.71,0.00648519
24.72,0.00659679
24.73,0.00671561
24.74,0.00684225
24.75,0.00697735
24.76,0.00712162
24.77,0.00727582
24.78,0.00744079
24.79,0.00761746
24.8,0.00780682
24.81,0.00800997
24.82,0.0082281
24.83,0.00846249
24.84,0.00871453
24.85,0.00898572
24.86,0.00927764
24.87,0.009592
24.88,0.00993056
24.89,0.0102952
24.9,0.0106877
24.91,0.01111
24.92,0.0115637
24.93,0.0120506
24.94,0.0125717
24.95,0.013128
24.96,0.0137195
24.97,0.0143453
24.98,0.0150034
24.99,0.0156901
25,0.0163998
25.01,0.0171245
25.02,0.0178536
25.03,0.0185739
25.04,0.0192693
25.05,0.0199213
25.06,0.0205099
25.07,0.0210145
25.08,0.0214157
25.09,0.0216964
25.1,0.0218443
25.11,0.0218524
25.12,0.0217203
25.13,0.0214543
25.14,0.0210662
25.15,0.0205725
25.16,0.0199925
25.17,0.0193468
25.18,0.0186554
25.19,0.0179371
25.2,0.0172083
25.21,0.0164825
25.22,0.0157706
25.23,0.015081
25.24,0.0144193
25.25,0.0137897
25.26,0.0131942
25.27,0.0126339
25.28,0.0121087
25.29,0.011618
25.3,0.0111605
25.31,0.0107347
25.32,0.0103388
25.33,0.00997111
25.34,0.00962964
25.35,0.0093126
25.36,0.00901818
25.37,0.00874469
25.38,0.00849053
25.39,0.00825419
25.4,0.00803426
25.41,0.00782945
25.42,0.00763855
25.43,0.00746048
25.44,0.00729421
25.45,0.00713882
25.46,0.00699345
25.47,0.00685734
25.48,0.00672976
25.49,0.00661007
25.5,0.00649766
25.51,0.00639201
25.52,0.0062926
25.53,0.00619898
25.54,0.00611073
25.55,0.00602747
25.56,0.00594884
25.57,0.00587453
25.58,0.00580424
25.59,0.00573769
25.6,0.00567463
25.61,0.00561483
25.62,0.00555808
25.63,0.00550418
25.64,0.00545295
25.65,0.00540422
25.66,0.00535784
25.67,0.00531366
25.68,0.00527155
25.69,0.00523138
25.7,0.00519304
25.71,0.00515642
25.72,0.00512143
25.73,0.00508797
25.74,0.00505595
25.75,0.0050253
25.76,0.00499594
25.77,0.0049678
25.78,0.00494081
25.79,0.00491492
25.8,0.00489006
25.81,0.00486618
25.82,0.00484324
25.83,0.00482119
25.84,0.00479997
25.85,0.00477955
25.86,0.0047599
25.87,0.00474096
25.88,0.00472272
25.89,0.00470513
25.9,0.00468817
25.91,0.00467181
25.92,0.00465602
25.93,0.00464076
25.94,0.00462603
25.95,0.0046118
25.96,0.00459804
25.97,0.00458473
25.98,0.00457186
25.99,0.0045594
26,0.00454735
26.01,0.00453567
26.02,0.00452436
26.03,0.0045134
26.04,0.00450278
26.05,0.00449248
26.06,0.00448249
26.07,0.0044728
26.08,0.0044634
26.09,0.00445427
26.1,0.0044454
26.11,0.0044368
26.12,0.00442843
26.13,0.0044203
26.14,0.0044124
26.15,0.00440472
26.16,0.00439725
26.17,0.00438999
26.18,0.00438291
26.19,0.00437603
26.2,0.00436933
26.21,0.00436281
26.22,0.00435646
26.23,0.00435027
26.24,0.00434424
26.25,0.00433836
26.26,0.00433264
26.27,0.00432705
26.28,0.00432161
26.29,0.00431629
26.3,0.00431111
26.31,0.00430605
26.32,0.00430112
26.33,0.0042963
26.34,0.0042916
26.35,0.00428701
26.36,0.00428252
26.37,0.00427814
26.38,0.00427386
26.39,0.00426967
26.4,0.00426559
26.41,0.00426159
26.42,0.00425768
26.43,0.00425386
26.44,0.00425012
26.45,0.00424647
26.46,0.00424289
26.47,0.00423939
26.48,0.00423596
26.49,0.00423261
26.5,0.00422933
26.51,0.00422612
26.52,0.00422297
26.53,0.00421989
26.54,0.00421687
26.55,0.00421392
26.56,0.00421102
26.57,0.00420818
26.58,0.0042054
26.59,0.00420267
26.6,0.0042
26.61,0.00419738
26.62,0.00419481
26.63,0.00419229
26.64,0.00418982
26.65,0.00418739
26.66,0.00418501
26.67,0.00418268
26.68,0.00418039
26.69,0.00417814
26.7,0.00417594
26.71,0.00417377
26.72,0.00417165
26.73,0.00416956
26.74,0.00416751
26.75,0.0041655
26.76,0.00416352
26.77,0.00416158
26.78,0.00415967
26.79,0.0041578
26.8,0.00415596
26.81,0.00415415
26.82,0.00415237
26.83,0.00415063
26.84,0.00414891
26.85,0.00414722
26.86,0.00414556
26.87,0.00414393
26.88,0.00414232
26.89,0.00414074
26.9,0.00413919
26.91,0.00413767
26.92,0.00413616
26.93,0.00413469
26.94,0.00413323
26.95,0.0041318
26.96,0.0041304
26.97,0.00412901
26.98,0.00412765
26.99,0.00412631

File: xrd.csv
23.9767, 0.0042919
24.2608, 0.00507233
24.5449, 0.00425244
24.829, 0.00863357
25.1132, 0.0218164
25.3657, 0.00899638
25.492, 0.00618707
25.7761, 0.0049671
26.0602, 0.00494737
26.2496, 0.00613445