Folder: superconductor_data/boron_diamond/dubrovinskaia_2006/tc1.41/xrd

Note: boron_diamond/dubrovinskaia_2006/tc1.41/xrd/summary.md
## XRD Analysis

#### Curve 1 (220 Fundamental Peak)
**Type**: Lorentzian\
**amplitude:** 1052.2\
**center** 38.2\
**width** 0.4


#### Curve 2 (311 Superlattice Peak)
**Type**: Gaussian\
**amplitude** 7.1\
**center** 40.2\
**Ïƒ** 0.2


## S<sup>2</sup>

#### Integrated Area of Peaks
**E<sub>220</sub>:** 657.98559\
**E<sub>311</sub>:** 0.39148\
**S<sup>2</sup>:** 0.1316

## T<sub>C</sub>
**T<sub>C</sub>:**  1.41 K


### Reference
XRD from Figure 3 of Dubrovinskaia et al.\
T<sub>C</sub> given in Figure 5b.


N. Dubrovinskaia, G. Eska, G. A. Sheshin, and H. Braun, Journal of Applied Physics 99, 033903 (2006).\
https://doi.org/10.1063/1.2166645

Note: README.md
[![DOI](https://zenodo.org/badge/DOI/10.5281/zenodo.3904782.svg)](https://doi.org/10.5281/zenodo.3904782)


Data Extraction Repository for
R.A Makin and S.M. Durbin, “Structural motifs: A potential pathway to superconductivity at standard temperature and pressure.”


### References


## YBCO

[1] C. Camerlingo, I. Delfino, and M. Lepore, Supercond. Sci. Technol. 15, 1606 (2002).\
    (https://doi.org/10.1088%2F0953-2048%2F15%2F11%2F321)


## Pb

[1] S. Bose, Size Effects in Nanostructured Superconductors, PhD Thesis, 2007.
https://www.tifr.res.in/~superconductivity/pdfs/sangitabose.pdf

## Nb

[1] S. Bose, Size Effects in Nanostructured Superconductors, PhD Thesis, 2007.
https://www.tifr.res.in/~superconductivity/pdfs/sangitabose.pdf

[2] C. T. Wu, Thin Solid Films 64, 103 (1979).\
https://doi.org/10.1016/0040-6090(79)90549-2

[3] G. Wu, A.-M. Valente, H. L. Phillips, H. Wang, A. T. Wu, T. J. Renk, and P. Provencio, Thin Solid Films 489, 56 (2005).\
https://doi.org/10.1016/j.tsf.2005.04.099

## Nb3Sn

[1] K. Kwasnitza, A. V. Narlikar, H. U. Nissen, and D. Salathé, Cryogenics 20, 715 (1980).\
https://doi.org/10.1016/0011-2275(80)90026-0

[2]G. Rosaz, S. Calatroni, F. Leaux, F. Motschmann, Z. Mydlarz, M. Taborelli, and W. Vollenberg, Development of Nb3Sn Coatings by Magnetron Sputtering for SRF Cavities, Proceedings of the 17th International Conference on RF Superconductivity SRF2015, 4 pages (2015). https://doi.org/10.18429/JACOW-SRF2015-TUPB051


## Nb3Ge

[1] M. Akinaga and T. Ueno, Applied Surface Science 33–34, 1269 (1988). \
https://doi.org/10.1016/0169-4332(88)90444-8

[2] S. Mase, T. Fukami, and S. Takano, Phase Transitions 8, 187 (1987).\
https://doi.org/10.1080/01411598708209375


## Nb3Al

[1] P. Li, W. Zhang, W. Lin, G. Wang, X. Pan, Z. Yu, X. Yang, B. Sun, G. Yan, Y. Zhang, C. H. Cheng, Y. Feng, and Y. Zhao, Journal of Alloys and Compounds 742, 130 (2018).\
https://doi.org/10.1016/j.jallcom.2018.01.248


## MgB2

[1] S. K. Chen, A. Serquis, G. Serrano, K. A. Yates, M. G. Blamire, D. Guthrie, J. Cooper, H. Wang, S. Margadonna, and J. L. MacManus‐Driscoll, Advanced Functional Materials 18, 113 (2008).\
(https://doi.org/10.1002/adfm.200700254)

[2] J. Nagamatsu, N. Nakagawa, T. Muranaka, Y. Zenitani, and J. Akimitsu, Nature 410, 63 (2001).\
 (https://doi.org/10.1038/35065039)

[3] Y. Wang, C. Zhuang, X. Sun, X. Huang, Q. Fu, Z. Liao, D. Yu, and Q. Feng, Supercond. Sci. Technol. 22, 125015 (2009).\
(https://doi.org/10.1088%2F0953-2048%2F22%2F12%2F125015)

[4] K. A. Yates, Burnell, N. A. Stelmashenko, D.-J. Kang, H. N. Lee, B. Oh, and M. G. Blamire, Phys. Rev. B 68, 220512 (2003).\
(https://doi.org/10.1103/PhysRevB.68.220512)

[5] K. A. Yates, G. Burnell, Z. Lockman, A. Kursumovic, J. L. MacManus Driscoll, and M. G. Blamire, Journal of Physics and Chemistry of Solids 67, 333 (2006).\
(https://doi.org/10.1016/j.jpcs.2005.10.114)

[6] C. Terzioglu, A. Varilci, and I. Belenli, Investigation of Effect of Annealing Temperature on Mechanical Prop

File: curve_1_fit.dat
36.5,13.8
36.52,14.1186
36.54,14.4484
36.56,14.7898
36.58,15.1433
36.6,15.5097
36.62,15.8894
36.64,16.2832
36.66,16.6917
36.68,17.1157
36.7,17.5559
36.72,18.0133
36.74,18.4887
36.76,18.983
36.78,19.4972
36.8,20.0326
36.82,20.5901
36.84,21.1711
36.86,21.7768
36.88,22.4087
36.9,23.0683
36.92,23.7573
36.94,24.4773
36.96,25.2302
36.98,26.0182
37,26.8433
37.02,27.708
37.04,28.6147
37.06,29.5662
37.08,30.5654
37.1,31.6157
37.12,32.7204
37.14,33.8834
37.16,35.1088
37.18,36.4011
37.2,37.7651
37.22,39.2063
37.24,40.7304
37.26,42.3438
37.28,44.0536
37.3,45.8675
37.32,47.7938
37.34,49.8421
37.36,52.0225
37.38,54.3464
37.4,56.8266
37.42,59.4769
37.44,62.3131
37.46,65.3523
37.48,68.6141
37.5,72.12
37.52,75.8944
37.54,79.9646
37.56,84.3611
37.58,89.1188
37.6,94.2767
37.62,99.8793
37.64,105.977
37.66,112.627
37.68,119.895
37.7,127.856
37.72,136.595
37.74,146.211
37.76,156.817
37.78,168.543
37.8,181.538
37.82,195.976
37.84,212.055
37.86,230.002
37.88,250.08
37.9,272.585
37.92,297.854
37.94,326.26
37.96,358.212
37.98,394.14
38,434.479
38.02,479.624
38.04,529.874
38.06,585.331
38.08,645.768
38.1,710.444
38.12,777.898
38.14,845.755
38.16,910.619
38.18,968.195
38.2,1013.72
38.22,1042.76
38.24,1052.14
38.26,1040.79
38.28,1010.01
38.3,963.125
38.32,904.648
38.34,839.323
38.36,771.374
38.38,704.099
38.4,639.779
38.42,579.796
38.44,524.834
38.46,475.082
38.48,430.412
38.5,390.514
38.52,354.986
38.54,323.392
38.56,295.304
38.58,270.315
38.6,248.056
38.62,228.195
38.64,210.437
38.66,194.525
38.68,180.234
38.7,167.367
38.72,155.755
38.74,145.249
38.76,135.722
38.78,127.061
38.8,119.17
38.82,111.964
38.84,105.37
38.86,99.322
38.88,93.7641
38.9,88.6464
38.92,83.9249
38.94,79.5611
38.96,75.5205
38.98,71.773
39,68.2915
39.02,65.0519
39.04,62.0329
39.06,59.2153
39.08,56.5819
39.1,54.1173
39.12,51.8076
39.14,49.6403
39.16,47.6042
39.18,45.689
39.2,43.8855
39.22,42.1852
39.24,40.5806
39.26,39.0648
39.28,37.6312
39.3,36.2743
39.32,34.9886
39.34,33.7694
39.36,32.6122
39.38,31.5128
39.4,30.4676
39.42,29.473
39.44,28.5259
39.46,27.6234
39.48,26.7626
39.5,25.9412
39.52,25.1566
39.54,24.4069
39.56,23.6899
39.58,23.0039
39.6,22.347
39.62,21.7177
39.64,21.1144
39.66,20.5357
39.68,19.9804
39.7,19.4471
39.72,18.9348
39.74,18.4423
39.76,17.9687
39.78,17.513
39.8,17.0744
39.82,16.6519
39.84,16.2448
39.86,15.8524
39.88,15.474
39.9,15.1089
39.92,14.7565
39.94,14.4163
39.96,14.0876
39.98,13.77
40,13.463
40.02,13.1661
40.04,12.8788
40.06,12.6008
40.08,12.3317
40.1,12.0711
40.12,11.8187
40.14,11.574
40.16,11.3368
40.18,11.1069
40.2,10.8838
40.22,10.6673
40.24,10.4573
40.26,10.2533
40.28,10.0553
40.3,9.86288
40.32,9.67594
40.34,9.49425
40.36,9.31762
40.38,9.14586
40.4,8.97878
40.42,8.81624
40.44,8.65805
40.46,8.50407
40.48,8.35416
40.49,8.28068

File: curve_2_fit.dat
36.5,7.6357e-98
36.52,8.6923e-97
36.54,9.76553e-96
36.56,1.08276e-94
36.58,1.18479e-93
36.6,1.27947e-92
36.62,1.36361e-91
36.64,1.43425e-90
36.66,1.4888e-89
36.68,1.52518e-88
36.7,1.54199e-87
36.72,1.53856e-86
36.74,1.51504e-85
36.76,1.47235e-84
36.78,1.41211e-83
36.8,1.33661e-82
36.82,1.24857e-81
36.84,1.15106e-80
36.86,1.04727e-79
36.88,9.40352e-79
36.9,8.33296e-78
36.92,7.28757e-77
36.94,6.28987e-76
36.96,5.35766e-75
36.98,4.50384e-74
37,3.73651e-73
37.02,3.05932e-72
37.04,2.47205e-71
37.06,1.97136e-70
37.08,1.55149e-69
37.1,1.20505e-68
37.12,9.23715e-68
37.14,6.98787e-67
37.16,5.21708e-66
37.18,3.84401e-65
37.2,2.79522e-64
37.22,2.00596e-63
37.24,1.42071e-62
37.26,9.93027e-62
37.28,6.85003e-61
37.3,4.66336e-60
37.32,3.13314e-59
37.34,2.07747e-58
37.36,1.35946e-57
37.38,8.77955e-57
37.4,5.59568e-56
37.42,3.51972e-55
37.44,2.18494e-54
37.46,1.33858e-53
37.48,8.09327e-53
37.5,4.82924e-52
37.52,2.84386e-51
37.54,1.65277e-50
37.56,9.47966e-50
37.58,5.36596e-49
37.6,2.99762e-48
37.62,1.65265e-47
37.64,8.99207e-47
37.66,4.82852e-46
37.68,2.55884e-45
37.7,1.33828e-44
37.72,6.90756e-44
37.74,3.51867e-43
37.76,1.76891e-42
37.78,8.77626e-42
37.8,4.29722e-41
37.82,2.07654e-40
37.84,9.90303e-40
37.86,4.66091e-39
37.88,2.16495e-38
37.9,9.92432e-38
37.92,4.48981e-37
37.94,2.00461e-36
37.96,8.83298e-36
37.98,3.84113e-35
38,1.64849e-34
38.02,6.98212e-34
38.04,2.91853e-33
38.06,1.20397e-32
38.08,4.90164e-32
38.1,1.96944e-31
38.12,7.80941e-31
38.14,3.05611e-30
38.16,1.18031e-29
38.18,4.49879e-29
38.2,1.69227e-28
38.22,6.28234e-28
38.24,2.30169e-27
38.26,8.32236e-27
38.28,2.96976e-26
38.3,1.04585e-25
38.32,3.63493e-25
38.34,1.2468e-24
38.36,4.22056e-24
38.38,1.41e-23
38.4,4.64883e-23
38.42,1.51266e-22
38.44,4.85754e-22
38.46,1.53945e-21
38.48,4.81491e-21
38.5,1.48623e-20
38.52,4.52752e-20
38.54,1.36116e-19
38.56,4.03861e-19
38.58,1.18258e-18
38.6,3.41745e-18
38.62,9.74654e-18
38.64,2.7433e-17
38.66,7.62027e-17
38.68,2.08902e-16
38.7,5.65184e-16
38.72,1.50908e-15
38.74,3.97657e-15
38.76,1.03414e-14
38.78,2.65416e-14
38.8,6.72279e-14
38.82,1.68053e-13
38.84,4.14588e-13
38.86,1.0094e-12
38.88,2.42541e-12
38.9,5.75149e-12
38.92,1.34602e-11
38.94,3.10883e-11
38.96,7.08626e-11
38.98,1.59409e-10
39,3.53902e-10
39.02,7.75404e-10
39.04,1.67667e-09
39.06,3.57802e-09
39.08,7.53551e-09
39.1,1.56624e-08
39.12,3.21275e-08
39.14,6.50386e-08
39.16,1.29939e-07
39.18,2.56203e-07
39.2,4.98544e-07
39.22,9.57409e-07
39.24,1.81454e-06
39.26,3.39399e-06
39.28,6.26511e-06
39.3,1.14136e-05
39.32,2.05206e-05
39.34,3.64111e-05
39.36,6.37604e-05
39.38,0.00011019
39.4,0.000187937
39.42,0.00031634
39.44,0.000525499
39.46,0.000861518
39.48,0.0013939
39.5,0.00222573
39.52,0.00350744
39.54,0.00545484
39.56,0.00837238
39.58,0.0126821
39.6,0.0189586
39.62,0.0279704
39.64,0.0407253
39.66,0.0585201
39.68,0.0829891
39.7,0.116148
39.72,0.160427
39.74,0.218685
39.76,0.294194
39.78,0.390592
39.8,0.511787
39.82,0.661803
39.84,0.844586
39.86,1.06374
39.88,1.3222
39.9,1.62195
39.92,1.9636
39.94,2.34607
39.96,2.76634
39.98,3.21917
40,3.69708
40.02,4.19032
40.04,4.68717
40.06,5.17427
40.08,5.63719
40.1,6.06109
40.12,6.43152
40.14,6.73522
40.16,6.96089
40.18,7.0999
40.2,7.14685
40.22,7.0999
40.24,6.96089
40.26,6.73522
40.28,6.43152
40.3,6.06109
40.32,5.63719
40.34,5.17427
40.36,4.68717
40.38,4.19032
40.4,3.69708
40.42,3.21917
40.44,2.76634
40.46,2.34607
40.48,1.9636
40.49,1.78756

File: curve_total_fit.dat
36.5,143.8
36.52,144.119
36.54,144.448
36.56,144.79
36.58,145.143
36.6,145.51
36.62,145.889
36.64,146.283
36.66,146.692
36.68,147.116
36.7,147.556
36.72,148.013
36.74,148.489
36.76,148.983
36.78,149.497
36.8,150.033
36.82,150.59
36.84,151.171
36.86,151.777
36.88,152.409
36.9,153.068
36.92,153.757
36.94,154.477
36.96,155.23
36.98,156.018
37,156.843
37.02,157.708
37.04,158.615
37.06,159.566
37.08,160.565
37.1,161.616
37.12,162.72
37.14,163.883
37.16,165.109
37.18,166.401
37.2,167.765
37.22,169.206
37.24,170.73
37.26,172.344
37.28,174.054
37.3,175.867
37.32,177.794
37.34,179.842
37.36,182.022
37.38,184.346
37.4,186.827
37.42,189.477
37.44,192.313
37.46,195.352
37.48,198.614
37.5,202.12
37.52,205.894
37.54,209.965
37.56,214.361
37.58,219.119
37.6,224.277
37.62,229.879
37.64,235.977
37.66,242.627
37.68,249.895
37.7,257.856
37.72,266.595
37.74,276.211
37.76,286.817
37.78,298.543
37.8,311.538
37.82,325.976
37.84,342.055
37.86,360.002
37.88,380.08
37.9,402.585
37.92,427.854
37.94,456.26
37.96,488.212
37.98,524.14
38,564.479
38.02,609.624
38.04,659.874
38.06,715.331
38.08,775.768
38.1,840.444
38.12,907.898
38.14,975.755
38.16,1040.62
38.18,1098.19
38.2,1143.72
38.22,1172.76
38.24,1182.14
38.26,1170.79
38.28,1140.01
38.3,1093.13
38.32,1034.65
38.34,969.323
38.36,901.374
38.38,834.099
38.4,769.779
38.42,709.796
38.44,654.834
38.46,605.082
38.48,560.412
38.5,520.514
38.52,484.986
38.54,453.392
38.56,425.304
38.58,400.315
38.6,378.056
38.62,358.195
38.64,340.437
38.66,324.525
38.68,310.234
38.7,297.367
38.72,285.755
38.74,275.249
38.76,265.722
38.78,257.061
38.8,249.17
38.82,241.964
38.84,235.37
38.86,229.322
38.88,223.764
38.9,218.646
38.92,213.925
38.94,209.561
38.96,205.521
38.98,201.773
39,198.291
39.02,195.052
39.04,192.033
39.06,189.215
39.08,186.582
39.1,184.117
39.12,181.808
39.14,179.64
39.16,177.604
39.18,175.689
39.2,173.885
39.22,172.185
39.24,170.581
39.26,169.065
39.28,167.631
39.3,166.274
39.32,164.989
39.34,163.769
39.36,162.612
39.38,161.513
39.4,160.468
39.42,159.473
39.44,158.526
39.46,157.624
39.48,156.764
39.5,155.943
39.52,155.16
39.54,154.412
39.56,153.698
39.58,153.017
39.6,152.366
39.62,151.746
39.64,151.155
39.66,150.594
39.68,150.063
39.7,149.563
39.72,149.095
39.74,148.661
39.76,148.263
39.78,147.904
39.8,147.586
39.82,147.314
39.84,147.089
39.86,146.916
39.88,146.796
39.9,146.731
39.92,146.72
39.94,146.762
39.96,146.854
39.98,146.989
40,147.16
40.02,147.356
40.04,147.566
40.06,147.775
40.08,147.969
40.1,148.132
40.12,148.25
40.14,148.309
40.16,148.298
40.18,148.207
40.2,148.031
40.22,147.767
40.24,147.418
40.26,146.989
40.28,146.487
40.3,145.924
40.32,145.313
40.34,144.669
40.36,144.005
40.38,143.336
40.4,142.676
40.42,142.035
40.44,141.424
40.46,140.85
40.48,140.318
40.49,140.068

File: xrd.csv
36.7018, 172.37
36.8229, 161.826
36.944, 162.997
37.0651, 164.169
37.1862, 167.684
37.3074, 174.713
37.4285, 181.743
37.5496, 199.317
37.6707, 196.973
37.7853, 212.371
37.8736, 267.269
37.9129, 311.789
37.9497, 358.541
37.9705, 501.587
37.9786, 439.102
37.9886, 405.516
38.0038, 560.947
38.0189, 698.413
38.025, 647.801
38.0708, 731.218
38.0795, 890.554
38.0795, 810.886
38.0795, 782.768
38.0795, 848.377
38.1098, 987.796
38.1249, 930.388
38.1299, 1046.77
38.1602, 1115.5
38.2082, 1152.99
38.2914, 1024.12
38.2914, 1082.69
38.3141, 962.412
38.3217, 1053.01
38.3369, 928.826
38.3369, 890.554
38.352, 848.377
38.3974, 765.194
38.4004, 813.698
38.458, 678.496
38.458, 718.721
38.4883, 594.142
38.4883, 643.349
38.5185, 510.959
38.5185, 475.812
38.5185, 548.45
38.57, 422.856
38.5791, 373.883
38.6169, 322.724
38.6396, 290.701
38.6699, 249.695
38.7002, 213.376
38.791, 185.258
38.9122, 168.855
39.0333, 160.654
39.1544, 161.826
39.2755, 158.311
39.3966, 148.938
39.5177, 150.11
39.6389, 154.796
39.76, 153.625
39.8811, 145.423
40.0022, 145.423
40.1233, 148.938
40.2444, 146.595
40.3656, 145.423
40.4867, 141.909
40.6078, 137.222
40.6986, 126.678