Folder: superconductor_data/mgb2/chen_2008/mg_0.99/xrd

Note: mgb2/chen_2008/mg_0.99/xrd/summary.md
## XRD Analysis

#### Curve 1 (001 Peak)
**Type**: Lorentzian\
**amplitude** 2.196e-2\
**center**: 25.14\
**σ**: 0.267



## S<sup>2</sup>
**Amplitude of (200) Peak:** 0.12602\
**E<sub>200</sub>:** 0.0728815276886331

Calculated by using S<sup>2</sup> and E<sub>200</sub> value of the Mg<sub>0.95</sub> film.\
**S<sup>2</sup>:** 0.1367

## T<sub>C</sub>
**T<sub>C</sub>:**  37.5 K


### Reference
XRD from Figure 10 of Chen et al.\
T<sub>C</sub> given in Table 1 of Chen et al.


S. K. Chen, A. Serquis, G. Serrano, K. A. Yates, M. G. Blamire, D. Guthrie, J. Cooper, H. Wang, S. Margadonna, and J. L. MacManus‐Driscoll, Advanced Functional Materials 18, 113 (2008).


(https://doi.org/10.1002/adfm.200700254)

Note: README.md
[![DOI](https://zenodo.org/badge/DOI/10.5281/zenodo.3904782.svg)](https://doi.org/10.5281/zenodo.3904782)


Data Extraction Repository for
R.A Makin and S.M. Durbin, “Structural motifs: A potential pathway to superconductivity at standard temperature and pressure.”


### References


## YBCO

[1] C. Camerlingo, I. Delfino, and M. Lepore, Supercond. Sci. Technol. 15, 1606 (2002).\
    (https://doi.org/10.1088%2F0953-2048%2F15%2F11%2F321)


## Pb

[1] S. Bose, Size Effects in Nanostructured Superconductors, PhD Thesis, 2007.
https://www.tifr.res.in/~superconductivity/pdfs/sangitabose.pdf

## Nb

[1] S. Bose, Size Effects in Nanostructured Superconductors, PhD Thesis, 2007.
https://www.tifr.res.in/~superconductivity/pdfs/sangitabose.pdf

[2] C. T. Wu, Thin Solid Films 64, 103 (1979).\
https://doi.org/10.1016/0040-6090(79)90549-2

[3] G. Wu, A.-M. Valente, H. L. Phillips, H. Wang, A. T. Wu, T. J. Renk, and P. Provencio, Thin Solid Films 489, 56 (2005).\
https://doi.org/10.1016/j.tsf.2005.04.099

## Nb3Sn

[1] K. Kwasnitza, A. V. Narlikar, H. U. Nissen, and D. Salathé, Cryogenics 20, 715 (1980).\
https://doi.org/10.1016/0011-2275(80)90026-0

[2]G. Rosaz, S. Calatroni, F. Leaux, F. Motschmann, Z. Mydlarz, M. Taborelli, and W. Vollenberg, Development of Nb3Sn Coatings by Magnetron Sputtering for SRF Cavities, Proceedings of the 17th International Conference on RF Superconductivity SRF2015, 4 pages (2015). https://doi.org/10.18429/JACOW-SRF2015-TUPB051


## Nb3Ge

[1] M. Akinaga and T. Ueno, Applied Surface Science 33–34, 1269 (1988). \
https://doi.org/10.1016/0169-4332(88)90444-8

[2] S. Mase, T. Fukami, and S. Takano, Phase Transitions 8, 187 (1987).\
https://doi.org/10.1080/01411598708209375


## Nb3Al

[1] P. Li, W. Zhang, W. Lin, G. Wang, X. Pan, Z. Yu, X. Yang, B. Sun, G. Yan, Y. Zhang, C. H. Cheng, Y. Feng, and Y. Zhao, Journal of Alloys and Compounds 742, 130 (2018).\
https://doi.org/10.1016/j.jallcom.2018.01.248


## MgB2

[1] S. K. Chen, A. Serquis, G. Serrano, K. A. Yates, M. G. Blamire, D. Guthrie, J. Cooper, H. Wang, S. Margadonna, and J. L. MacManus‐Driscoll, Advanced Functional Materials 18, 113 (2008).\
(https://doi.org/10.1002/adfm.200700254)

[2] J. Nagamatsu, N. Nakagawa, T. Muranaka, Y. Zenitani, and J. Akimitsu, Nature 410, 63 (2001).\
 (https://doi.org/10.1038/35065039)

[3] Y. Wang, C. Zhuang, X. Sun, X. Huang, Q. Fu, Z. Liao, D. Yu, and Q. Feng, Supercond. Sci. Technol. 22, 125015 (2009).\
(https://doi.org/10.1088%2F0953-2048%2F22%2F12%2F125015)

[4] K. A. Yates, Burnell, N. A. Stelmashenko, D.-J. Kang, H. N. Lee, B. Oh, and M. G. Blamire, Phys. Rev. B 68, 220512 (2003).\
(https://doi.org/10.1103/PhysRevB.68.220512)

[5] K. A. Yates, G. Burnell, Z. Lockman, A. Kursumovic, J. L. MacManus Driscoll, and M. G. Blamire, Journal of Physics and Chemistry of Solids 67, 333 (2006).\
(https://doi.org/10.1016/j.jpcs.2005.10.114)

[6] C. Terzioglu, A. Varilci, and I. Belenli, Investigation of Effect of Annealing Temperature on Mechanical Prop

File: curve_1_fit.dat
24.0,0.000296794
24.01,0.000301994
24.02,0.000307331
24.03,0.00031281
24.04,0.000318436
24.05,0.000324214
24.06,0.000330151
24.07,0.000336251
24.08,0.000342521
24.09,0.000348967
24.1,0.000355595
24.11,0.000362413
24.12,0.000369428
24.13,0.000376648
24.14,0.00038408
24.15,0.000391733
24.16,0.000399615
24.17,0.000407736
24.18,0.000416106
24.19,0.000424734
24.2,0.000433631
24.21,0.00044281
24.22,0.00045228
24.23,0.000462056
24.24,0.000472149
24.25,0.000482574
24.26,0.000493346
24.27,0.00050448
24.28,0.000515992
24.29,0.000527899
24.3,0.000540219
24.31,0.000552972
24.32,0.000566178
24.33,0.000579858
24.34,0.000594036
24.35,0.000608734
24.36,0.00062398
24.37,0.0006398
24.38,0.000656223
24.39,0.00067328
24.4,0.000691003
24.41,0.000709427
24.42,0.000728589
24.43,0.000748529
24.44,0.000769289
24.45,0.000790913
24.46,0.00081345
24.47,0.000836952
24.48,0.000861472
24.49,0.00088707
24.5,0.00091381
24.51,0.000941759
24.52,0.000970989
24.53,0.00100158
24.54,0.00103361
24.55,0.00106718
24.56,0.00110239
24.57,0.00113933
24.58,0.00117812
24.59,0.00121889
24.6,0.00126176
24.61,0.00130689
24.62,0.00135443
24.63,0.00140456
24.64,0.00145745
24.65,0.0015133
24.66,0.00157235
24.67,0.00163482
24.68,0.00170099
24.69,0.00177113
24.7,0.00184556
24.71,0.00192464
24.72,0.00200872
24.73,0.00209824
24.74,0.00219365
24.75,0.00229546
24.76,0.00240422
24.77,0.00252055
24.78,0.00264513
24.79,0.00277872
24.8,0.00292215
24.81,0.00307635
24.82,0.00324236
24.83,0.00342131
24.84,0.00361448
24.85,0.0038233
24.86,0.00404933
24.87,0.00429432
24.88,0.00456022
24.89,0.00484919
24.9,0.0051636
24.91,0.00550607
24.92,0.0058795
24.93,0.00628701
24.94,0.00673199
24.95,0.00721805
24.96,0.00774896
24.97,0.0083286
24.98,0.00896076
24.99,0.00964899
25,0.0103962
25.01,0.0112044
25.02,0.012074
25.03,0.0130029
25.04,0.013986
25.05,0.0150139
25.06,0.0160719
25.07,0.017139
25.08,0.0181873
25.09,0.0191824
25.1,0.0200845
25.11,0.0208512
25.12,0.0214413
25.13,0.0218199
25.14,0.0219629
25.15,0.021861
25.16,0.0215208
25.17,0.0209642
25.18,0.0202245
25.19,0.0193422
25.2,0.01836
25.21,0.0173181
25.22,0.016252
25.23,0.0151908
25.24,0.0141566
25.25,0.0131652
25.26,0.0122266
25.27,0.0113469
25.28,0.0105283
25.29,0.00977087
25.3,0.00907287
25.31,0.00843148
25.32,0.00784324
25.33,0.00730438
25.34,0.00681102
25.35,0.00635937
25.36,0.00594578
25.37,0.00556683
25.38,0.00521934
25.39,0.00490039
25.4,0.0046073
25.41,0.00433767
25.42,0.00408929
25.43,0.00386019
25.44,0.00364858
25.45,0.00345287
25.46,0.00327161
25.47,0.0031035
25.48,0.00294739
25.49,0.00280221
25.5,0.00266702
25.51,0.00254097
25.52,0.0024233
25.53,0.00231331
25.54,0.00221037
25.55,0.00211392
25.56,0.00202344
25.57,0.00193846
25.58,0.00185857
25.59,0.00178338
25.6,0.00171253
25.61,0.00164572
25.62,0.00158264
25.63,0.00152304
25.64,0.00146666
25.65,0.00141328
25.66,0.00136271
25.67,0.00131474
25.68,0.00126922
25.69,0.00122597
25.7,0.00118486
25.71,0.00114574
25.72,0.00110849
25.73,0.00107301
25.74,0.00103917
25.75,0.00100688
25.76,0.000976053
25.77,0.000946599
25.78,0.000918439
25.79,0.000891501
25.8,0.000865714
25.81,0.000841016
25.82,0.000817347
25.83,0.000794651
25.84,0.000772876
25.85,0.000751973
25.86,0.000731898
25.87,0.000712607
25.88,0.000694061
25.89,0.000676223
25.9,0.000659056
25.91,0.000642528
25.92,0.000626609
25.93,0.000611268
25.94,0.000596479
25.95,0.000582215
25.96,0.000568452
25.97,0.000555168
25.98,0.00054234
25.99,0.000529948
26,0.000517973
26.01,0.000506395
26.02,0.000495199
26.03,0.000484367
26.04,0.000473885
26.05,0.000463736
26.06,0.000453908
26.07,0.000444387
26.08,0.00043516
26.09,0.000426216
26.1,0.000417543
26.11,0.000409131
26.12,0.000400968
26.13,0.000393046
26.14,0.000385355
26.15,0.000377887
26.16,0.000370632
26.17,0.000363583
26.18,0.000356732
26.19,0.000350072
26.2,0.000343596
26.21,0.000337297
26.22,0.000331168
26.23,0.000325205
26.24,0.0003194
26.25,0.000313749
26.26,0.000308245
26.27,0.000302884
26.28,0.000297662
26.29,0.000292573
26.3,0.000287612
26.31,0.000282776
26.32,0.000278061
26.33,0.000273462
26.34,0.000268976
26.35,0.000264598
26.36,0.000260327
26.37,0.000256157
26.38,0.000252087
26.39,0.000248112
26.4,0.000244231
26.41,0.000240439
26.42,0.000236735
26.43,0.000233115
26.44,0.000229578
26.45,0.00022612
26.46,0.000222739
26.47,0.000219433
26.48,0.000216201
26.49,0.000213039
26.5,0.000209945
26.51,0.000206918
26.52,0.000203956
26.53,0.000201057
26.54,0.000198219
26.55,0.000195441
26.56,0.00019272
26.57,0.000190056
26.58,0.000187447
26.59,0.00018489
26.6,0.000182386
26.61,0.000179932
26.62,0.000177526
26.63,0.000175169
26.64,0.000172858
26.65,0.000170593
26.66,0.000168372
26.67,0.000166193
26.68,0.000164057
26.69,0.000161961
26.7,0.000159905
26.71,0.000157888
26.72,0.000155909
26.73,0.000153967
26.74,0.000152061
26.75,0.000150189
26.76,0.000148352
26.77,0.000146549
26.78,0.000144778
26.79,0.000143039
26.8,0.000141331
26.81,0.000139653
26.82,0.000138005
26.83,0.000136386
26.84,0.000134796
26.85,0.000133232
26.86,0.000131696
26.87,0.000130186
26.88,0.000128702
26.89,0.000127243
26.9,0.000125809
26.91,0.000124399
26.92,0.000123012
26.93,0.000121649
26.94,0.000120307
26.95,0.000118988
26.96,0.000117691
26.97,0.000116414
26.98,0.000115158
26.99,0.000113923

File: curve_total_fit.dat
24.0,0.403757
24.01,0.403762
24.02,0.403767
24.03,0.403773
24.04,0.403778
24.05,0.403784
24.06,0.40379
24.07,0.403796
24.08,0.403803
24.09,0.403809
24.1,0.403816
24.11,0.403822
24.12,0.403829
24.13,0.403837
24.14,0.403844
24.15,0.403852
24.16,0.40386
24.17,0.403868
24.18,0.403876
24.19,0.403885
24.2,0.403894
24.21,0.403903
24.22,0.403912
24.23,0.403922
24.24,0.403932
24.25,0.403943
24.26,0.403953
24.27,0.403964
24.28,0.403976
24.29,0.403988
24.3,0.404
24.31,0.404013
24.32,0.404026
24.33,0.40404
24.34,0.404054
24.35,0.404069
24.36,0.404084
24.37,0.4041
24.38,0.404116
24.39,0.404133
24.4,0.404151
24.41,0.404169
24.42,0.404189
24.43,0.404209
24.44,0.404229
24.45,0.404251
24.46,0.404273
24.47,0.404297
24.48,0.404321
24.49,0.404347
24.5,0.404374
24.51,0.404402
24.52,0.404431
24.53,0.404462
24.54,0.404494
24.55,0.404527
24.56,0.404562
24.57,0.404599
24.58,0.404638
24.59,0.404679
24.6,0.404722
24.61,0.404767
24.62,0.404814
24.63,0.404865
24.64,0.404917
24.65,0.404973
24.66,0.405032
24.67,0.405095
24.68,0.405161
24.69,0.405231
24.7,0.405306
24.71,0.405385
24.72,0.405469
24.73,0.405558
24.74,0.405654
24.75,0.405755
24.76,0.405864
24.77,0.405981
24.78,0.406105
24.79,0.406239
24.8,0.406382
24.81,0.406536
24.82,0.406702
24.83,0.406881
24.84,0.407074
24.85,0.407283
24.86,0.407509
24.87,0.407754
24.88,0.40802
24.89,0.408309
24.9,0.408624
24.91,0.408966
24.92,0.40934
24.93,0.409747
24.94,0.410192
24.95,0.410678
24.96,0.411209
24.97,0.411789
24.98,0.412421
24.99,0.413109
25,0.413856
25.01,0.414664
25.02,0.415534
25.03,0.416463
25.04,0.417446
25.05,0.418474
25.06,0.419532
25.07,0.420599
25.08,0.421647
25.09,0.422642
25.1,0.423544
25.11,0.424311
25.12,0.424901
25.13,0.42528
25.14,0.425423
25.15,0.425321
25.16,0.424981
25.17,0.424424
25.18,0.423684
25.19,0.422802
25.2,0.42182
25.21,0.420778
25.22,0.419712
25.23,0.418651
25.24,0.417617
25.25,0.416625
25.26,0.415687
25.27,0.414807
25.28,0.413988
25.29,0.413231
25.3,0.412533
25.31,0.411891
25.32,0.411303
25.33,0.410764
25.34,0.410271
25.35,0.409819
25.36,0.409406
25.37,0.409027
25.38,0.408679
25.39,0.40836
25.4,0.408067
25.41,0.407798
25.42,0.407549
25.43,0.40732
25.44,0.407109
25.45,0.406913
25.46,0.406732
25.47,0.406564
25.48,0.406407
25.49,0.406262
25.5,0.406127
25.51,0.406001
25.52,0.405883
25.53,0.405773
25.54,0.40567
25.55,0.405574
25.56,0.405483
25.57,0.405398
25.58,0.405319
25.59,0.405243
25.6,0.405173
25.61,0.405106
25.62,0.405043
25.63,0.404983
25.64,0.404927
25.65,0.404873
25.66,0.404823
25.67,0.404775
25.68,0.404729
25.69,0.404686
25.7,0.404645
25.71,0.404606
25.72,0.404568
25.73,0.404533
25.74,0.404499
25.75,0.404467
25.76,0.404436
25.77,0.404407
25.78,0.404378
25.79,0.404352
25.8,0.404326
25.81,0.404301
25.82,0.404277
25.83,0.404255
25.84,0.404233
25.85,0.404212
25.86,0.404192
25.87,0.404173
25.88,0.404154
25.89,0.404136
25.9,0.404119
25.91,0.404103
25.92,0.404087
25.93,0.404071
25.94,0.404056
25.95,0.404042
25.96,0.404028
25.97,0.404015
25.98,0.404002
25.99,0.40399
26,0.403978
26.01,0.403966
26.02,0.403955
26.03,0.403944
26.04,0.403934
26.05,0.403924
26.06,0.403914
26.07,0.403904
26.08,0.403895
26.09,0.403886
26.1,0.403878
26.11,0.403869
26.12,0.403861
26.13,0.403853
26.14,0.403845
26.15,0.403838
26.16,0.403831
26.17,0.403824
26.18,0.403817
26.19,0.40381
26.2,0.403804
26.21,0.403797
26.22,0.403791
26.23,0.403785
26.24,0.403779
26.25,0.403774
26.26,0.403768
26.27,0.403763
26.28,0.403758
26.29,0.403753
26.3,0.403748
26.31,0.403743
26.32,0.403738
26.33,0.403733
26.34,0.403729
26.35,0.403725
26.36,0.40372
26.37,0.403716
26.38,0.403712
26.39,0.403708
26.4,0.403704
26.41,0.4037
26.42,0.403697
26.43,0.403693
26.44,0.40369
26.45,0.403686
26.46,0.403683
26.47,0.403679
26.48,0.403676
26.49,0.403673
26.5,0.40367
26.51,0.403667
26.52,0.403664
26.53,0.403661
26.54,0.403658
26.55,0.403655
26.56,0.403653
26.57,0.40365
26.58,0.403647
26.59,0.403645
26.6,0.403642
26.61,0.40364
26.62,0.403638
26.63,0.403635
26.64,0.403633
26.65,0.403631
26.66,0.403628
26.67,0.403626
26.68,0.403624
26.69,0.403622
26.7,0.40362
26.71,0.403618
26.72,0.403616
26.73,0.403614
26.74,0.403612
26.75,0.40361
26.76,0.403608
26.77,0.403607
26.78,0.403605
26.79,0.403603
26.8,0.403601
26.81,0.4036
26.82,0.403598
26.83,0.403596
26.84,0.403595
26.85,0.403593
26.86,0.403592
26.87,0.40359
26.88,0.403589
26.89,0.403587
26.9,0.403586
26.91,0.403584
26.92,0.403583
26.93,0.403582
26.94,0.40358
26.95,0.403579
26.96,0.403578
26.97,0.403576
26.98,0.403575
26.99,0.403574